Time_s,Gyro_X,Gyro_Y,Gyro_Z
0.0,0.109,-0.398,0.029
0.02,-0.022,-0.209,0.125
0.04,0.13,-0.108,0.07
0.06,0.314,0.027,-0.24
0.08,-0.065,0.203,-0.023
0.1,-0.077,0.133,0.14
0.12,0.288,-0.25,0.102
0.14,0.134,-0.095,-0.133
0.16,-0.105,-0.0,0.108
0.18,0.07,-0.083,0.202
0.2,-0.136,-0.093,-0.179
0.22,-0.128,-0.387,-0.371
0.24,0.003,-0.268,0.373
0.26,-0.43,-0.123,0.078
0.28,-0.388,-0.669,-0.084
0.3,-0.155,0.074,-0.083
0.32,-0.24,-0.315,0.039
0.34,0.024,0.116,0.223
0.36,-0.215,0.101,-0.287
0.38,-0.31,-0.153,-0.07
0.4,0.274,0.164,0.359
0.42,-0.056,0.102,0.195
0.44,0.012,-0.104,0.166
0.46,-0.291,-0.141,0.119
0.48,-0.119,0.152,0.111
0.5,0.014,-0.022,-0.049
0.52,-0.219,0.145,-0.066
0.54,0.089,-0.567,0.215
0.56,-0.09,-0.079,-0.049
0.58,-0.013,-0.405,0.125
0.6,-0.06,-0.103,0.1
0.62,0.445,0.034,0.504
0.64,0.062,0.235,0.035
0.66,-0.158,-0.285,0.29
0.68,0.21,-0.194,0.195
0.7,-0.188,-0.104,0.031
0.72,0.096,-0.282,-0.19
0.74,-0.344,0.116,0.065
0.76,-0.222,-0.086,0.246
0.78,0.088,-0.054,-0.163
0.8,0.189,0.038,0.253
0.82,0.071,-0.103,0.331
0.84,0.01,-0.243,0.094
0.86,-0.018,-0.083,0.257
0.88,-0.27,-0.246,0.117
0.9,-0.118,-0.06,0.197
0.92,-0.07,0.126,0.378
0.94,0.24,-0.311,-0.224
0.96,0.096,-0.372,-0.083
0.98,-0.334,-0.056,0.313
1.0,0.105,-0.213,0.335
1.02,-0.022,-0.06,-0.243
1.04,-0.078,0.013,0.367
1.06,0.186,-0.491,-0.469
1.08,0.262,0.082,0.163
1.1,0.244,-0.299,0.053
1.12,-0.083,-0.056,-0.144
1.14,0.035,-0.196,-0.162
1.16,0.153,-0.156,-0.152
1.18,0.286,0.311,-0.058
1.2,-0.004,0.045,0.385
1.22,0.06,0.17,0.137
1.24,-0.107,0.026,0.258
1.26,-0.134,0.114,-0.089
1.28,0.266,0.069,0.018
1.3,0.363,0.041,-0.255
1.32,0.08,0.225,-0.087
1.34,0.296,0.042,-0.154
1.36,0.189,0.451,0.059
1.38,-0.021,0.194,-0.18
1.4,0.189,-0.232,-0.191
1.42,0.398,-0.032,0.078
1.44,0.103,0.077,-0.017
1.46,0.423,0.016,-0.158
1.48,-0.412,0.152,-0.186
1.5,0.274,0.173,-0.157
1.52,0.131,-0.269,0.152
1.54,0.048,0.271,0.065
1.56,0.128,-0.082,-0.177
1.58,-0.274,-0.103,-0.17
1.6,0.075,-0.102,-0.253
1.62,0.188,0.168,-0.114
1.64,0.409,-0.041,-0.012
1.66,0.019,-0.123,-0.213
1.68,-0.04,-0.075,0.407
1.7,0.017,-0.347,0.094
1.72,0.302,-0.173,-0.026
1.74,0.195,-0.273,0.004
1.76,0.01,-0.095,-0.309
1.78,0.226,0.084,-0.273
1.8,0.147,0.059,0.243
1.82,0.325,0.183,0.296
1.84,-0.009,0.125,-0.471
1.86,0.066,-0.187,0.07
1.88,0.06,-0.089,0.253
1.9,-0.169,-0.106,-0.095
1.92,0.174,-0.518,0.278
1.94,0.151,-0.328,0.122
1.96,0.117,-0.134,0.051
1.98,0.082,-0.134,-0.079
2.0,-0.176,0.007,-0.014
2.02,0.027,0.006,-0.099
2.04,0.04,-0.435,0.035
2.06,-0.046,0.028,0.028
2.08,0.086,-0.039,-0.118
2.1,0.197,0.054,-0.412
2.12,0.493,0.152,-0.073
2.14,0.161,-0.091,-0.227
2.16,0.172,0.179,-0.24
2.18,0.102,-0.249,-0.164
2.2,-0.261,-0.265,0.136
2.22,0.126,0.009,-0.247
2.24,0.146,-0.17,-0.193
2.26,0.622,-0.034,0.132
2.28,0.074,0.315,-0.165
2.3,0.157,0.006,-0.216
2.32,0.088,-0.04,0.183
2.34,-0.138,-0.251,-0.014
2.36,0.321,-0.42,0.025
2.38,0.233,-0.093,-0.012
2.4,0.228,0.141,0.121
2.42,-0.11,-0.129,0.174
2.44,0.366,0.011,0.008
2.46,-0.203,0.211,-0.278
2.48,0.195,0.209,0.081
2.5,0.509,-0.016,-0.048
2.52,-0.122,-0.06,0.176
2.54,-0.038,-0.395,-0.183
2.56,0.105,-0.215,-0.057
2.58,-0.014,-0.143,-0.303
2.6,-0.223,-0.275,0.148
2.62,0.093,-0.057,0.242
2.64,-0.142,0.278,-0.096
2.66,0.17,0.201,-0.021
2.68,-0.106,-0.032,-0.148
2.7,0.408,0.07,-0.128
2.72,-0.07,-0.227,0.17
2.74,0.032,0.197,-0.075
2.76,0.261,-0.419,0.12
2.78,-0.158,0.09,0.023
2.8,0.107,0.003,0.175
2.82,0.316,-0.246,-0.044
2.84,-0.272,-0.134,0.228
2.86,0.082,-0.305,0.381
2.88,0.106,-0.297,-0.327
2.9,0.206,-0.403,-0.014
2.92,-0.195,0.062,-0.022
2.94,-0.226,0.151,-0.151
2.96,0.146,-0.515,0.089
2.98,0.088,0.279,0.233
3.0,0.086,-0.099,-0.387
3.02,0.115,-0.031,-0.414
3.04,-0.106,-0.373,0.33
3.06,0.096,0.201,-0.064
3.08,0.104,-0.022,-0.019
3.1,-0.094,0.17,-0.255
3.12,0.429,0.191,-0.056
3.14,0.144,0.192,0.206
3.16,-0.196,-0.193,0.043
3.18,0.17,-0.096,-0.002
3.2,-0.152,-0.174,-0.386
3.22,0.206,0.131,0.126
3.24,0.294,0.019,-0.024
3.26,-0.089,0.188,-0.155
3.28,0.28,0.179,0.1
3.3,0.179,-0.394,-0.19
3.32,0.269,0.222,0.096
3.34,0.479,0.154,0.227
3.36,0.045,-0.106,0.002
3.38,-0.072,0.031,-0.134
3.4,-0.085,-0.073,-0.163
3.42,-0.07,0.077,0.04
3.44,0.082,-0.124,-0.134
3.46,0.137,0.067,0.429
3.48,0.118,-0.013,-0.322
3.5,0.237,-0.12,-0.061
3.52,0.078,0.024,0.01
3.54,0.359,0.517,-0.031
3.56,0.015,-0.16,-0.183
3.58,0.631,-0.079,0.176
3.6,0.21,-0.17,0.056
3.62,-0.085,-0.146,0.068
3.64,-0.128,0.139,-0.216
3.66,0.185,0.126,-0.166
3.68,0.055,-0.026,0.014
3.7,0.268,0.192,-0.314
3.72,0.234,0.15,0.045
3.74,0.128,-0.065,-0.118
3.76,-0.015,-0.331,0.117
3.78,-0.164,0.153,-0.187
3.8,0.05,0.022,0.254
3.82,0.303,-0.001,-0.027
3.84,0.169,-0.08,-0.007
3.86,-0.113,0.136,-0.248
3.88,0.184,0.063,-0.056
3.9,0.213,-0.063,-0.236
3.92,-0.042,-0.249,-0.43
3.94,0.159,0.206,-0.158
3.96,0.146,0.118,0.114
3.98,-0.083,0.032,-0.124
4.0,0.24,-0.543,-0.166
4.02,0.292,-0.031,-0.182
4.04,0.408,-0.075,0.344
4.06,0.393,-0.138,0.021
4.08,-0.101,0.143,-0.431
4.1,-0.012,0.132,-0.227
4.12,0.304,0.062,-0.204
4.14,0.305,0.181,-0.264
4.16,0.319,-0.236,-0.099
4.18,0.983,-0.128,-0.225
4.2,0.326,-0.03,-0.208
4.22,0.439,-0.173,-0.07
4.24,0.398,0.094,-0.432
4.26,0.344,-0.136,-0.563
4.28,0.138,0.217,0.091
4.3,0.334,-0.218,0.002
4.32,0.025,0.407,-0.094
4.34,0.138,0.364,-0.12
4.36,0.081,-0.069,-0.222
4.38,0.217,0.178,0.423
4.4,0.664,-0.13,-0.14
4.42,-0.172,0.138,0.338
4.44,0.329,-0.102,0.218
4.46,-0.125,-0.32,-0.096
4.48,0.114,-0.784,-0.223
4.5,0.428,-0.132,-0.165
4.52,0.226,-0.032,-0.256
4.54,0.0,0.176,-0.102
4.56,0.064,-0.091,-0.056
4.58,0.357,0.099,-0.454
4.6,0.072,-0.197,0.313
4.62,0.279,-0.156,-0.378
4.64,0.232,0.143,-0.76
4.66,0.102,-0.54,-0.254
4.68,0.663,-0.068,-0.473
4.7,0.362,-0.144,-0.262
4.72,-0.176,0.205,-0.236
4.74,0.273,-0.183,-0.148
4.76,0.109,0.04,-0.032
4.78,0.43,0.12,-0.439
4.8,0.107,-0.354,-0.3
4.82,0.239,-0.073,-0.088
4.84,0.358,-0.125,-0.379
4.86,0.434,0.148,-0.629
4.88,0.035,0.09,-0.135
4.9,0.213,-0.091,-0.376
4.92,0.195,-0.239,-0.393
4.94,0.162,0.189,-0.245
4.96,0.627,-0.035,-0.259
4.98,0.359,-0.346,-0.044
5.0,0.024,-0.311,-0.494
5.02,0.472,0.071,0.209
5.04,0.73,-0.291,-0.514
5.06,0.53,0.328,-0.326
5.08,0.018,-0.21,-0.431
5.1,0.22,-0.035,-0.248
5.12,0.567,-0.012,-0.257
5.14,0.171,-0.187,-0.222
5.16,0.403,-0.487,-0.207
5.18,0.46,0.01,0.004
5.2,0.12,-0.166,-0.209
5.22,0.273,0.004,0.044
5.24,-0.342,-0.04,-0.559
5.26,0.099,0.039,-0.649
5.28,0.249,0.291,-0.188
5.3,0.056,-0.125,-0.142
5.32,0.64,-0.108,-0.314
5.34,0.007,-0.344,-0.211
5.36,0.198,-0.056,-0.0
5.38,0.327,0.077,-0.079
5.4,0.598,-0.112,-0.284
5.42,0.011,0.06,-0.177
5.44,0.542,-0.039,-0.071
5.46,0.319,-0.268,-0.462
5.48,0.113,0.056,-0.384
5.5,0.401,-0.05,-0.044
5.52,0.332,0.004,-0.589
5.54,0.18,-0.147,-0.448
5.56,0.329,-0.169,-0.476
5.58,0.235,-0.01,-0.047
5.6,0.335,-0.096,-0.465
5.62,0.449,0.299,-0.082
5.64,0.631,0.123,-0.335
5.66,0.046,0.075,0.108
5.68,0.731,-0.073,-0.227
5.7,-0.074,-0.433,-0.038
5.72,0.293,-0.183,-0.162
5.74,0.455,-0.136,-0.344
5.76,0.392,-0.068,-0.26
5.78,0.216,-0.027,-0.252
5.8,0.291,0.118,-0.322
5.82,0.226,0.042,-0.053
5.84,0.193,0.221,0.291
5.86,0.485,-0.05,-0.177
5.88,0.387,0.054,-0.053
5.9,0.188,0.076,-0.08
5.92,0.489,0.058,-0.689
5.94,0.373,0.277,-0.087
5.96,0.492,0.161,-0.099
5.98,0.456,-0.268,-0.421
6.0,0.174,-0.021,-0.53
6.02,0.251,-0.001,-0.091
6.04,0.526,0.434,0.148
6.06,0.484,-0.069,-0.257
6.08,0.355,-0.194,-0.255
6.1,0.386,0.102,0.274
6.12,0.618,0.131,-0.022
6.14,0.257,0.018,-0.447
6.16,0.484,-0.012,-0.348
6.18,0.334,0.225,0.212
6.2,0.342,-0.144,-0.358
6.22,0.591,-0.044,-0.324
6.24,0.541,-0.089,-0.088
6.26,0.532,0.238,-0.282
6.28,0.638,0.069,-0.141
6.3,0.378,-0.2,-0.162
6.32,0.515,-0.179,-0.245
6.34,0.311,0.387,0.035
6.36,0.418,0.244,-0.465
6.38,0.331,0.205,-0.187
6.4,0.364,0.045,-0.32
6.42,0.478,0.353,0.126
6.44,0.201,-0.175,-0.25
6.46,0.79,0.189,0.164
6.48,0.168,-0.044,-0.321
6.5,0.126,-0.014,-0.212
6.52,0.577,0.174,-0.008
6.54,0.508,-0.001,-0.41
6.56,0.463,-0.088,0.078
6.58,0.467,-0.108,-0.227
6.6,0.328,-0.398,-0.148
6.62,0.157,0.153,-0.123
6.64,0.353,-0.195,-0.232
6.66,0.189,0.385,-0.39
6.68,0.533,-0.053,-0.21
6.7,0.307,0.246,-0.641
6.72,0.162,-0.376,-0.508
6.74,0.274,0.129,-0.267
6.76,0.415,0.174,0.072
6.78,0.218,0.231,0.062
6.8,0.182,-0.324,-0.027
6.82,0.399,-0.168,-0.532
6.84,0.405,0.093,-0.16
6.86,0.254,0.015,-0.408
6.88,0.254,0.054,-0.256
6.9,0.392,-0.09,-0.06
6.92,0.032,0.29,-0.099
6.94,0.047,0.526,0.016
6.96,0.19,0.052,-0.517
6.98,0.277,0.142,-0.434
7.0,0.385,0.07,0.084
7.02,0.588,0.318,0.083
7.04,0.486,0.22,-0.215
7.06,0.277,-0.176,-0.229
7.08,0.3,-0.076,0.012
7.1,0.111,-0.16,-0.103
7.12,0.312,0.567,-0.098
7.14,0.243,0.16,-0.404
7.16,0.365,-0.057,0.022
7.18,0.14,-0.068,-0.254
7.2,0.401,0.223,-0.483
7.22,0.611,0.25,-0.356
7.24,0.27,0.222,-0.327
7.26,0.378,-0.027,0.082
7.28,0.421,0.124,-0.374
7.3,0.199,0.069,-0.157
7.32,0.307,-0.138,-0.657
7.34,0.273,-0.138,-0.035
7.36,0.303,0.129,-0.383
7.38,0.145,0.08,-0.15
7.4,0.301,0.167,-0.155
7.42,0.388,0.204,-0.115
7.44,0.589,0.342,-0.162
7.46,0.491,-0.11,0.171
7.48,0.723,0.187,-0.177
7.5,0.133,0.198,0.224
7.52,0.461,-0.01,-0.102
7.54,0.335,0.075,-0.181
7.56,0.726,0.015,-0.054
7.58,0.14,0.501,-0.186
7.6,0.131,0.098,-0.153
7.62,0.192,0.154,-0.154
7.64,-0.115,0.011,-0.171
7.66,0.213,-0.033,0.194
7.68,0.158,-0.222,0.215
7.7,0.344,0.257,-0.181
7.72,0.389,0.206,0.007
7.74,0.677,-0.003,0.021
7.76,0.508,-0.123,0.015
7.78,0.188,0.092,-0.093
7.8,0.135,-0.048,-0.069
7.82,0.408,0.001,-0.098
7.84,0.053,-0.204,-0.356
7.86,0.688,0.088,-0.222
7.88,0.554,0.094,-0.455
7.9,0.215,0.272,-0.113
7.92,-0.036,0.007,-0.138
7.94,0.573,-0.044,-0.087
7.96,0.283,-0.296,-0.381
7.98,0.554,0.231,-0.022
8.0,-0.02,0.181,-0.125
8.02,0.166,0.0,0.208
8.04,0.283,-0.28,-0.074
8.06,0.291,-0.264,-0.343
8.08,0.184,-0.125,-0.498
8.1,0.402,0.172,-0.181
8.12,0.062,0.047,-0.444
8.14,0.257,-0.299,-0.407
8.16,0.313,0.086,-0.445
8.18,0.398,-0.177,-0.379
8.2,0.431,-0.121,0.022
8.22,0.077,0.184,-0.461
8.24,-0.002,0.159,-0.349
8.26,0.573,0.206,-0.551
8.28,0.393,-0.009,-0.598
8.3,0.175,0.164,-0.329
8.32,0.629,-0.148,-0.231
8.34,0.342,-0.075,-0.503
8.36,0.552,-0.102,-0.57
8.38,0.323,-0.046,-0.648
8.4,0.711,-0.283,-0.242
8.42,0.669,-0.088,-0.079
8.44,0.255,0.235,-0.543
8.46,0.48,-0.274,-0.368
8.48,0.418,-0.329,-0.031
8.5,0.556,-0.31,-0.294
8.52,0.086,0.477,-0.291
8.54,0.402,0.028,-0.214
8.56,0.481,-0.098,-0.374
8.58,-0.08,-0.046,-0.438
8.6,0.045,-0.017,-0.206
8.62,-0.121,-0.192,-0.528
8.64,0.23,-0.167,-0.589
8.66,0.412,-0.088,-0.412
8.68,0.561,-0.194,-0.126
8.7,0.266,-0.13,-0.027
8.72,0.566,0.031,-0.365
8.74,-0.022,-0.253,-0.117
8.76,-0.073,0.47,-0.008
8.78,0.251,0.108,-0.289
8.8,0.347,-0.297,-0.167
8.82,0.267,-0.541,0.082
8.84,-0.146,-0.184,-0.437
8.86,0.25,0.092,-0.36
8.88,-0.012,0.056,0.007
8.9,0.367,-0.057,-0.492
8.92,0.31,-0.148,-0.276
8.94,0.058,-0.211,-0.439
8.96,0.153,-0.108,-0.053
8.98,0.033,-0.234,-0.563
9.0,0.241,-0.128,-0.352
9.02,0.451,0.231,-0.537
9.04,0.068,-0.174,-0.622
9.06,0.364,0.105,-0.709
9.08,0.152,0.132,-0.365
9.1,0.107,-0.242,-0.243
9.12,0.252,-0.181,-0.331
9.14,0.065,0.194,-0.285
9.16,0.165,-0.212,-0.399
9.18,0.041,-0.061,-0.112
9.2,0.672,0.365,-0.146
9.22,0.28,0.168,-0.276
9.24,0.133,-0.006,-0.264
9.26,0.325,0.14,-0.391
9.28,0.251,-0.058,0.107
9.3,0.241,0.162,-0.126
9.32,0.4,-0.448,-0.317
9.34,0.447,-0.073,-0.316
9.36,0.198,-0.464,-0.344
9.38,0.184,-0.008,-0.343
9.4,0.231,-0.08,-0.225
9.42,-0.18,0.246,-0.614
9.44,-0.026,0.129,-0.329
9.46,0.547,-0.116,-0.309
9.48,0.596,-0.085,-0.292
9.5,0.218,0.069,-0.256
9.52,0.382,-0.132,-0.275
9.54,0.321,-0.019,-0.188
9.56,0.885,0.255,-0.278
9.58,0.504,-0.179,-0.056
9.6,0.255,-0.093,-0.116
9.62,0.099,-0.067,0.204
9.64,-0.025,0.606,-0.104
9.66,0.331,0.098,-0.383
9.68,0.144,0.189,-0.255
9.7,0.002,0.085,-0.324
9.72,0.147,0.096,-0.226
9.74,0.066,0.03,-0.007
9.76,0.625,0.004,-0.296
9.78,0.469,-0.358,-0.344
9.8,0.292,0.0,-0.131
9.82,0.573,-0.096,-0.383
9.84,0.277,0.018,-0.389
9.86,0.093,-0.129,-0.13
9.88,0.577,0.039,-0.57
9.9,0.373,0.069,-0.305
9.92,0.075,-0.716,-0.036
9.94,0.238,-0.223,-0.574
9.96,0.113,-0.521,-0.571
9.98,-0.005,-0.103,-0.487
10.0,0.448,-0.238,-0.737
10.02,0.648,0.105,0.193
10.04,-0.016,-0.114,-0.166
10.06,0.384,-0.263,-0.314
10.08,0.144,0.026,-0.428
10.1,0.191,-0.231,0.263
10.12,0.165,-0.245,-0.049
10.14,0.1,-0.082,-0.212
10.16,0.28,0.173,0.056
10.18,0.1,0.031,-0.12
10.2,0.314,-0.038,-0.304
10.22,0.241,0.409,-0.339
10.24,0.189,-0.292,-0.337
10.26,0.068,-0.304,-0.418
10.28,0.12,-0.122,-0.001
10.3,0.385,0.15,-0.325
10.32,0.336,-0.34,0.036
10.34,0.043,0.192,-0.411
10.36,0.258,-0.447,-0.36
10.38,0.374,-0.173,-0.332
10.4,-0.118,-0.124,-0.409
10.42,0.324,-0.332,-0.347
10.44,0.083,-0.286,-0.118
10.46,0.318,-0.01,0.016
10.48,0.057,0.143,-0.163
10.5,-0.16,-0.552,-0.461
10.52,-0.108,-0.1,-0.346
10.54,0.208,-0.164,-0.364
10.56,0.256,-0.128,0.092
10.58,0.024,-0.205,-0.061
10.6,0.331,-0.413,-0.013
10.62,-0.123,0.158,-0.388
10.64,0.189,0.105,-0.516
10.66,-0.043,-0.146,-0.138
10.68,0.058,-0.213,-0.344
10.7,0.211,-0.228,-0.198
10.72,0.024,-0.628,-0.168
10.74,0.113,-0.054,-0.331
10.76,0.404,0.042,-0.055
10.78,0.071,-0.076,-0.563
10.8,0.37,-0.102,-0.251
10.82,-0.024,-0.058,-0.13
10.84,0.318,-0.265,0.068
10.86,0.505,-0.194,-0.242
10.88,-0.297,-0.134,-0.031
10.9,0.045,0.047,-0.054
10.92,0.309,0.191,0.168
10.94,0.15,-0.124,-0.251
10.96,0.282,-0.294,0.093
10.98,0.082,-0.08,-0.149
11.0,0.231,0.299,-0.612
11.02,0.173,-0.304,-0.3
11.04,0.452,0.058,-0.492
11.06,0.268,0.137,-0.01
11.08,0.289,-0.208,-0.263
11.1,0.139,-0.274,-0.566
11.12,0.124,-0.03,-0.124
11.14,0.121,-0.085,-0.037
11.16,0.281,-0.014,-0.39
11.18,0.111,0.26,-0.408
11.2,0.24,-0.117,-0.264
11.22,0.598,-0.38,-0.653
11.24,0.371,-0.122,-0.146
11.26,0.123,-0.078,0.043
11.28,0.445,0.132,-0.419
11.3,0.122,-0.192,0.079
11.32,-0.209,-0.243,-0.1
11.34,-0.005,-0.449,-0.31
11.36,-0.156,-0.066,-0.146
11.38,0.152,0.49,0.037
11.4,0.23,-0.216,-0.247
11.42,0.568,-0.098,-0.191
11.44,0.284,-0.311,-0.36
11.46,0.186,-0.464,-0.293
11.48,0.388,-0.116,-0.137
11.5,-0.23,-0.201,-0.315
11.52,0.255,-0.677,-0.367
11.54,0.359,0.12,-0.045
11.56,-0.09,-0.119,-0.186
11.58,0.431,-0.185,-0.38
11.6,0.264,-0.306,0.056
11.62,0.107,-0.136,0.126
11.64,0.317,-0.129,-0.098
11.66,0.627,-0.134,-0.552
11.68,0.209,0.017,-0.226
11.7,0.235,0.076,-0.178
11.72,0.097,0.217,-0.613
11.74,0.026,-0.346,-0.079
11.76,0.376,-0.301,-0.272
11.78,0.045,-0.127,-0.101
11.8,0.225,-0.366,-0.393
11.82,0.11,-0.326,-0.233
11.84,0.302,-0.113,-0.221
11.86,0.261,-0.028,-0.293
11.88,0.427,0.046,-0.246
11.9,0.118,-0.223,-0.391
11.92,0.181,-0.107,-0.595
11.94,0.037,-0.153,-0.764
11.96,0.145,-0.193,-0.466
11.98,0.309,-0.356,-0.191
12.0,0.397,-0.385,-0.561
12.02,0.086,-0.069,-0.156
12.04,0.43,-0.359,-0.091
12.06,0.525,-0.559,-0.27
12.08,0.341,-0.209,-0.4
12.1,0.616,0.081,-0.161
12.12,0.08,-0.777,-0.12
12.14,-0.01,-0.28,-0.398
12.16,-0.122,-0.089,-0.329
12.18,0.533,-0.594,-0.512
12.2,0.37,-0.271,-0.293
12.22,0.223,-0.45,-0.768
12.24,0.28,-0.418,-0.397
12.26,-0.011,-0.297,-0.497
12.28,0.681,-0.441,-0.343
12.3,0.223,-0.456,-0.479
12.32,0.217,-0.226,-0.693
12.34,0.353,0.234,-0.424
12.36,0.31,-0.076,-0.397
12.38,0.26,-0.039,-0.093
12.4,0.06,-0.081,-0.418
12.42,0.295,-0.376,-0.459
12.44,0.581,-0.193,-0.526
12.46,0.472,-0.032,-0.06
12.48,0.514,-0.094,-0.328
12.5,0.089,-0.216,-0.227
12.52,-0.0,-0.163,-0.597
12.54,0.167,0.245,-0.645
12.56,0.201,-0.076,-0.47
12.58,0.414,-0.297,0.034
12.6,-0.146,-0.251,-0.502
12.62,0.501,-0.439,-0.403
12.64,0.162,0.246,-0.274
12.66,0.119,0.092,-0.395
12.68,0.004,-0.215,-0.172
12.7,-0.141,0.219,-0.431
12.72,0.363,-0.079,-0.499
12.74,0.206,-0.306,0.261
12.76,-0.072,-0.028,-0.476
12.78,-0.075,-0.133,-0.128
12.8,0.139,-0.047,-0.464
12.82,0.545,-0.492,-0.577
12.84,0.179,-0.372,-0.29
12.86,-0.069,0.1,-0.528
12.88,0.189,0.149,-0.341
12.9,0.202,0.092,-0.423
12.92,-0.275,0.254,-0.005
12.94,0.258,-0.078,-0.568
12.96,0.209,-0.104,-0.127
12.98,0.384,-0.386,-0.2
13.0,0.618,-0.307,-0.306
13.02,0.483,-0.579,-0.399
13.04,0.203,-0.249,-0.203
13.06,0.042,-0.599,-0.2
13.08,0.77,0.03,-0.177
13.1,0.261,-0.109,-0.315
13.12,0.256,-0.597,-0.468
13.14,0.249,-0.226,-0.058
13.16,0.29,0.198,-0.243
13.18,0.216,-0.217,-0.35
13.2,0.115,-0.378,-0.408
13.22,0.12,-0.542,-0.019
13.24,0.209,-0.534,0.054
13.26,0.103,-0.073,-0.107
13.28,0.068,-0.26,-0.089
13.3,0.246,-0.25,0.036
13.32,0.163,-0.282,-0.266
13.34,0.52,-0.205,0.237
13.36,-0.31,-0.415,-0.396
13.38,0.428,-0.115,-0.217
13.4,0.46,-0.479,-0.326
13.42,-0.217,-0.351,-0.153
13.44,0.13,0.006,0.184
13.46,0.122,-0.131,-0.219
13.48,-0.077,-0.066,-0.097
13.5,0.042,0.227,-0.761
13.52,-0.047,-0.212,-0.095
13.54,0.52,-0.178,0.009
13.56,0.363,-0.222,-0.164
13.58,0.432,-0.267,-0.393
13.6,0.316,-0.392,-0.426
13.62,-0.042,-0.182,-0.304
13.64,0.076,-0.134,-0.449
13.66,0.287,-0.115,0.109
13.68,-0.055,-0.187,-0.104
13.7,0.338,-0.018,0.083
13.72,0.155,-0.183,-0.264
13.74,0.142,-0.269,-0.371
13.76,0.351,-0.367,-0.35
13.78,0.304,-0.505,-0.312
13.8,0.13,0.096,-0.328
13.82,0.44,-0.341,0.025
13.84,-0.025,-0.399,-0.028
13.86,0.334,-0.3,-0.139
13.88,0.332,-0.28,-0.499
13.9,0.154,0.11,-0.118
13.92,0.265,-0.283,-0.226
13.94,-0.041,0.308,0.09
13.96,0.407,-0.221,-0.018
13.98,0.183,0.186,-0.177
14.0,0.111,-0.063,-0.629
14.02,0.422,-0.176,-0.233
14.04,0.088,0.064,-0.347
14.06,-0.054,-0.022,-0.132
14.08,-0.082,-0.123,-0.437
14.1,0.36,0.205,-0.14
14.12,-0.041,-0.35,-0.64
14.14,0.565,-0.466,-0.469
14.16,-0.205,-0.395,-0.367
14.18,0.552,0.095,-0.294
14.2,0.263,0.032,-0.127
14.22,0.211,-0.362,-0.522
14.24,0.119,-0.732,-0.333
14.26,0.307,-0.313,-0.332
14.28,0.219,-0.486,-0.07
14.3,0.455,-0.393,-0.233
14.32,0.269,-0.518,-0.39
14.34,0.262,-0.619,-0.418
14.36,0.163,0.086,-0.304
14.38,0.222,-0.43,-0.504
14.4,0.316,-0.035,0.148
14.42,-0.099,-0.368,-0.188
14.44,-0.038,-0.544,-0.385
14.46,0.374,-0.216,-0.428
14.48,0.266,-0.406,-0.456
14.5,0.201,-0.373,-0.143
14.52,0.236,-0.295,-0.54
14.54,0.312,-0.467,-0.248
14.56,0.13,-0.618,-0.118
14.58,0.091,-0.307,-0.353
14.6,0.272,-0.114,-0.442
14.62,0.027,-0.494,-0.07
14.64,0.3,-0.27,-0.469
14.66,-0.122,-0.001,-0.3
14.68,0.416,-0.344,-0.229
14.7,0.296,-0.329,-0.39
14.72,0.257,-0.345,-0.499
14.74,0.41,-0.522,-0.383
14.76,0.539,-0.575,-0.213
14.78,0.396,-0.552,-0.405
14.8,-0.174,-0.271,-0.174
14.82,-0.058,-0.183,-0.324
14.84,0.063,-0.164,-0.383
14.86,0.21,-0.413,-0.427
14.88,0.299,-0.121,-0.263
14.9,0.048,-0.278,-0.088
14.92,0.228,-0.308,-0.286
14.94,0.031,-0.997,-0.486
14.96,0.078,-0.485,-0.067
14.98,-0.09,-0.634,-0.452
15.001,0.024,-0.216,0.078
15.021,-0.065,-0.334,-0.3
15.041,0.008,-0.584,-0.441
15.061,0.407,-0.31,-0.153
15.081,0.013,-0.648,-0.31
15.101,0.749,-0.546,-0.161
15.121,0.316,-0.472,-0.259
15.141,0.251,-0.23,-0.569
15.161,0.057,-0.048,-0.301
15.181,0.358,-0.437,-0.2
15.201,0.095,-0.057,-0.278
15.221,0.248,-0.322,-0.045
15.241,0.74,-0.302,-0.226
15.261,0.2,-0.37,-0.334
15.281,0.455,-0.396,-0.25
15.301,0.069,-0.254,-0.419
15.321,0.214,-0.202,-0.259
15.341,0.555,-0.526,-0.27
15.361,0.065,-0.382,-0.588
15.381,0.557,-0.017,-0.204
15.401,0.324,-0.328,0.088
15.421,0.07,-0.306,-0.239
15.441,0.314,-0.141,-0.755
15.461,0.375,-0.49,-0.426
15.481,0.304,-0.381,-0.607
15.501,-0.126,-0.217,-0.404
15.521,0.047,-0.128,-0.211
15.541,0.158,-0.846,-0.491
15.561,0.184,-0.532,0.016
15.581,0.313,-0.582,-0.924
15.601,0.238,-0.404,-0.406
15.621,-0.061,-0.562,-0.279
15.641,0.279,-0.245,-0.578
15.661,0.32,-0.338,-0.557
15.681,0.318,-0.19,-0.192
15.701,0.418,-0.171,0.035
15.721,0.376,-0.238,0.069
15.741,0.314,-0.459,-0.401
15.761,0.209,-0.376,-0.048
15.781,-0.123,-0.49,-0.315
15.801,0.301,-0.663,-0.132
15.821,0.268,-0.18,-0.358
15.841,0.293,-0.395,-0.547
15.861,-0.015,-0.667,-0.009
15.881,0.007,-0.258,0.05
15.901,0.429,-0.417,-0.413
15.921,0.206,-0.78,-0.125
15.941,0.358,-0.639,-0.334
15.961,0.232,-0.502,0.121
15.981,0.241,-0.306,-0.614
16.001,0.416,-0.196,-0.345
16.021,0.127,-0.199,-0.585
16.041,0.227,-0.247,-0.628
16.061,0.111,-0.39,-0.326
16.081,0.102,-0.039,-0.384
16.101,0.144,-0.252,-0.495
16.121,0.255,-0.335,-0.112
16.141,0.119,-0.258,-0.038
16.161,0.454,-0.447,-0.199
16.181,0.022,-0.379,-0.686
16.201,0.171,-0.795,-0.243
16.221,0.111,-0.486,-0.243
16.241,0.484,-0.064,-0.476
16.261,0.245,-0.383,-0.254
16.281,0.401,-0.403,-0.412
16.301,-0.106,-0.211,-0.472
16.321,0.236,-0.338,-0.547
16.341,0.364,-0.56,-0.155
16.361,0.21,-0.384,-0.05
16.381,0.423,-0.625,-0.316
16.401,0.11,-0.364,-0.069
16.421,0.508,-0.562,0.042
16.441,0.69,-0.225,-0.227
16.461,0.144,-0.509,-0.263
16.481,0.127,-0.56,-0.163
16.501,0.508,-0.412,-0.417
16.521,0.544,-0.313,-0.129
16.541,0.122,-0.642,-0.225
16.561,0.139,-0.506,-0.527
16.581,0.158,-0.394,-0.533
16.601,-0.057,-0.148,-0.465
16.621,0.027,-0.921,-0.179
16.641,0.016,-0.3,-0.352
16.661,0.055,-0.487,-0.289
16.681,0.225,-0.523,-0.019
16.701,0.27,-0.536,-0.199
16.721,0.521,-0.465,-0.407
16.741,0.016,-0.26,-0.495
16.761,0.4,-0.491,-0.243
16.781,0.16,-0.068,-0.495
16.801,0.186,-0.282,-0.035
16.821,0.338,-0.37,-0.232
16.841,-0.02,-0.445,-0.256
16.861,0.292,-0.181,-0.485
16.881,0.253,-0.136,-0.166
16.901,0.319,-0.645,-0.061
16.921,0.28,-0.557,-0.303
16.941,0.704,-0.3,-0.083
16.961,0.078,-0.241,-0.355
16.981,0.102,-0.509,-0.268
17.001,0.089,-0.602,0.161
17.021,0.099,-0.428,-0.332
17.041,0.081,-0.147,-0.139
17.061,0.442,-0.45,-0.323
17.081,0.492,-0.708,-0.19
17.101,0.094,-0.429,-0.109
17.121,0.048,-0.291,-0.438
17.141,0.303,-0.465,-0.395
17.161,0.097,-0.178,-0.146
17.181,0.349,-0.245,-0.235
17.201,0.284,-0.438,-0.031
17.221,-0.062,-0.423,-0.214
17.241,0.564,-0.808,0.115
17.261,0.626,-0.196,-0.1
17.281,0.152,-0.498,0.127
17.301,0.18,-0.526,0.087
17.321,0.3,-0.554,-0.382
17.341,0.305,-0.36,0.039
17.361,0.365,-0.688,-0.071
17.381,0.626,-0.658,-0.084
17.401,0.194,-0.454,-0.023
17.421,0.076,-0.569,-0.336
17.441,-0.023,-0.366,-0.219
17.461,0.101,-0.55,-0.365
17.481,0.234,-0.114,0.176
17.501,0.602,-0.29,-0.443
17.521,0.126,-0.298,-0.545
17.541,0.293,-0.57,-0.447
17.561,0.242,0.018,-0.268
17.581,0.482,-0.552,-0.274
17.601,0.751,-0.604,-0.069
17.621,0.138,-0.318,-0.23
17.641,0.143,-0.427,-0.353
17.661,0.474,-0.63,-0.144
17.681,0.402,-0.033,-0.009
17.701,0.64,-0.29,-0.215
17.721,0.382,-0.502,-0.075
17.741,0.2,-0.027,-0.209
17.761,0.39,-0.337,-0.286
17.781,0.496,-0.503,-0.093
17.801,0.443,-0.059,-0.181
17.821,0.39,-0.373,-0.037
17.841,0.508,-0.389,0.061
17.861,0.529,-0.613,-0.262
17.881,0.571,-0.528,-0.106
17.901,0.413,-0.609,-0.008
17.921,0.249,-0.238,-0.127
17.941,0.312,-0.859,-0.106
17.961,0.534,-0.274,-0.178
17.981,0.105,-0.712,-0.151
18.001,0.345,-0.555,-0.108
18.021,0.185,-0.616,-0.341
18.041,0.277,-0.673,-0.569
18.061,0.541,-0.435,-0.262
18.081,0.323,-0.562,-0.281
18.101,0.308,-0.688,0.085
18.121,0.036,-0.523,-0.197
18.141,0.458,-0.669,-0.143
18.161,0.422,-0.632,-0.333
18.181,0.729,-0.797,-0.37
18.201,0.227,-0.592,-0.413
18.221,0.304,-0.404,-0.514
18.241,0.299,-0.503,-0.118
18.261,0.578,-0.147,-0.205
18.281,0.245,0.01,0.031
18.301,0.332,-0.574,-0.151
18.321,0.413,-0.651,-0.214
18.341,0.332,-0.247,-0.651
18.361,0.199,-0.407,0.13
18.381,0.317,-0.241,-0.236
18.401,0.492,-0.385,-0.654
18.421,0.063,-0.499,-0.188
18.441,0.284,-0.498,-0.411
18.461,0.111,-0.391,-0.4
18.481,0.487,-0.511,-0.184
18.501,-0.059,-0.244,-0.368
18.521,0.133,-0.734,-0.038
18.541,0.324,-0.226,-0.27
18.561,0.56,-0.841,-0.159
18.581,0.242,-0.437,-0.135
18.601,0.151,-0.519,-0.196
18.621,0.648,-0.743,-0.205
18.641,-0.019,-0.867,-0.209
18.661,-0.181,-0.698,0.057
18.681,0.344,-0.464,-0.064
18.701,0.146,-0.593,-0.383
18.721,0.05,-0.687,-0.455
18.741,0.381,-0.207,-0.378
18.761,0.292,-0.734,-0.126
18.781,0.132,-0.347,-0.432
18.801,-0.004,-0.669,-0.322
18.821,0.429,-0.718,-0.464
18.841,0.384,-0.609,0.002
18.861,0.224,-0.371,-0.038
18.881,0.63,-0.774,-0.007
18.901,0.046,-0.443,-0.27
18.921,-0.049,-0.69,-0.52
18.941,0.119,-0.641,-0.36
18.961,0.26,-0.409,-0.488
18.981,0.315,-0.047,-0.502
19.001,0.23,-0.659,-0.006
19.021,0.35,-0.33,-0.277
19.041,0.037,-0.528,-0.168
19.061,0.579,-0.545,0.002
19.081,0.28,-0.235,-0.422
19.101,0.529,-0.611,-0.104
19.121,0.378,-0.679,-0.512
19.141,0.417,-0.36,-0.171
19.161,0.439,-0.143,-0.003
19.181,0.426,-0.315,-0.444
19.201,0.459,-0.744,-0.041
19.221,0.6,-0.586,-0.151
19.241,0.365,-0.269,-0.292
19.261,0.46,-0.151,-0.445
19.281,0.313,-0.423,-0.17
19.301,0.64,-0.586,-0.096
19.321,0.215,-0.125,-0.262
19.341,0.7,-0.47,-0.4
19.361,0.332,-0.586,-0.056
19.381,0.046,-0.602,0.019
19.401,0.371,-0.686,-0.016
19.421,0.215,0.118,0.113
19.441,0.525,-0.174,-0.337
19.461,0.226,-0.597,-0.506
19.481,0.26,-0.103,-0.137
19.501,-0.018,-0.352,-0.308
19.521,0.268,-0.372,-0.031
19.541,-0.137,-0.604,-0.438
19.561,0.047,-0.579,-0.41
19.581,0.54,-0.474,-0.197
19.601,0.547,-0.853,-0.165
19.621,0.478,-0.559,-0.079
19.641,0.218,-0.456,-0.225
19.661,0.399,-0.18,-0.582
19.681,0.419,-0.557,0.494
19.701,0.182,-0.262,-0.192
19.721,0.72,-0.832,0.382
19.741,0.585,-0.188,-0.23
19.761,0.362,-0.603,-0.41
19.781,0.395,-0.394,-0.26
19.801,0.437,-0.333,0.035
19.821,-0.009,-0.376,-0.062
19.841,0.339,-0.435,-0.138
19.861,0.274,-0.664,-0.215
19.881,0.211,-0.591,-0.157
19.901,0.354,-0.213,-0.214
19.921,0.76,-0.528,0.056
19.941,0.536,-0.426,0.007
19.961,0.285,-0.703,-0.38
19.981,0.521,-0.241,-0.483
20.001,0.678,-0.663,-0.44
20.021,0.587,-0.221,-0.259
20.041,0.412,-0.605,-0.157
20.061,0.279,-0.201,-0.212
20.081,0.535,-0.413,-0.052
20.101,0.479,-0.516,-0.177
20.121,0.569,-0.067,0.152
20.141,0.511,-0.395,-0.059
20.161,0.599,-0.467,-0.139
20.181,0.283,-0.202,-0.438
20.201,0.657,-0.689,-0.064
20.221,0.441,-0.909,-0.03
20.241,0.818,-0.171,-0.266
20.261,0.264,-0.575,-0.358
20.281,0.739,-0.226,0.089
20.301,0.453,-0.385,-0.323
20.321,0.289,-0.63,-0.088
20.341,0.322,-0.27,-0.123
20.361,0.352,-0.451,-0.046
20.381,0.502,-0.587,-0.312
20.401,0.522,-0.578,-0.134
20.421,0.308,-0.708,-0.293
20.441,0.412,-0.276,-0.088
20.461,0.862,-0.522,-0.007
20.481,0.786,-0.331,0.078
20.501,0.51,-0.37,0.192
20.521,0.433,-0.531,-0.166
20.541,0.458,-0.649,-0.165
20.561,0.543,0.169,0.147
20.581,0.227,-0.338,-0.008
20.601,0.386,0.047,0.126
20.621,0.091,-0.085,0.269
20.641,0.503,-0.376,-0.3
20.661,0.541,-0.26,0.034
20.681,0.323,-0.26,-0.25
20.701,0.725,0.082,0.185
20.721,0.155,-0.111,-0.375
20.741,0.108,-0.436,0.03
20.761,0.467,-0.197,-0.277
20.781,0.644,-0.088,-0.058
20.801,0.761,-0.495,0.076
20.821,0.32,-0.163,-0.289
20.841,0.622,0.001,-0.443
20.861,0.384,-0.446,-0.207
20.881,0.365,-0.424,-0.23
20.901,0.583,-0.069,-0.416
20.921,0.546,-0.376,-0.551
20.941,0.101,-0.491,0.084
20.961,0.713,-0.13,0.131
20.981,0.683,-0.208,-0.299
21.001,0.284,-0.311,-0.244
21.021,0.501,-0.112,-0.028
21.041,0.517,-0.09,-0.022
21.061,0.474,-0.328,0.177
21.081,0.313,0.106,-0.05
21.101,0.283,0.02,-0.379
21.121,0.417,-0.687,0.0
21.141,0.675,-0.496,-0.294
21.161,0.563,-0.737,-0.167
21.181,0.372,-0.345,0.075
21.201,0.601,-0.523,-0.31
21.221,-0.115,-0.453,-0.149
21.241,0.685,-0.08,-0.382
21.261,0.094,-0.647,-0.332
21.281,0.362,-0.266,-0.232
21.301,0.217,-0.274,0.192
21.321,0.201,-0.317,-0.131
21.341,0.686,-0.263,0.405
21.361,0.351,-0.735,0.063
21.381,0.525,-0.446,0.085
21.401,0.449,0.039,-0.313
21.421,0.55,-0.507,-0.128
21.441,0.468,0.061,-0.327
21.461,0.194,-0.559,-0.155
21.481,0.658,-0.576,-0.188
21.501,0.362,-0.476,-0.107
21.521,0.134,-0.045,0.057
21.541,0.358,-0.368,-0.168
21.561,0.762,-0.203,0.071
21.581,0.643,-0.263,-0.386
21.601,0.416,-0.294,-0.01
21.621,0.408,-0.022,-0.185
21.641,0.417,-0.131,-0.037
21.661,0.906,-0.537,0.092
21.681,0.568,-0.351,-0.35
21.701,0.589,0.029,0.23
21.721,0.701,-0.238,-0.111
21.741,0.545,-0.608,0.311
21.761,0.439,-0.594,-0.047
21.781,0.466,-0.131,0.202
21.801,0.491,-0.173,-0.061
21.821,0.496,-0.497,-0.029
21.841,0.637,-0.166,-0.041
21.861,0.51,-0.004,-0.093
21.881,0.651,-0.026,-0.091
21.901,0.488,0.001,-0.0
21.921,0.526,-0.189,0.06
21.941,0.121,-0.345,-0.008
21.961,0.706,-0.385,0.073
21.981,0.597,-0.313,-0.33
22.001,0.732,-0.491,0.153
22.021,-0.064,-0.388,-0.187
22.041,0.938,-0.055,-0.356
22.061,0.476,-0.623,0.338
22.081,0.725,-0.611,0.243
22.101,0.301,-0.121,-0.048
22.121,0.614,-0.349,0.169
22.141,0.281,-0.661,-0.108
22.161,0.363,-0.282,-0.151
22.181,0.868,-0.32,-0.176
22.201,0.455,-0.354,-0.188
22.221,0.556,-0.144,-0.119
22.241,0.694,-0.543,-0.203
22.261,0.619,-0.275,-0.631
22.281,0.536,-0.334,-0.115
22.301,0.593,-0.296,-0.28
22.321,0.999,-0.651,-0.024
22.341,0.49,-0.41,-0.142
22.361,0.53,-0.309,0.02
22.381,0.687,-0.208,-0.091
22.401,0.687,0.038,-0.333
22.421,0.714,-0.185,-0.336
22.441,0.606,-0.257,-0.333
22.461,0.255,-0.113,-0.254
22.481,0.782,-0.43,-0.234
22.501,0.234,-0.054,0.088
22.521,0.53,-0.143,-0.05
22.541,0.301,-0.451,-0.469
22.561,0.427,0.015,-0.264
22.581,0.516,-0.3,-0.087
22.601,0.509,0.054,-0.275
22.621,0.539,-0.327,-0.038
22.641,0.778,-0.511,-0.205
22.661,0.541,-0.556,-0.073
22.681,0.4,-0.482,-0.162
22.701,0.621,-0.517,-0.023
22.721,0.67,-0.158,0.235
22.741,0.175,-0.427,0.133
22.761,0.522,-0.745,-0.248
22.781,0.527,-0.379,0.461
22.801,0.319,-0.399,0.19
22.821,0.659,-0.539,-0.194
22.841,0.346,-0.408,-0.236
22.861,0.409,-0.469,0.0
22.881,0.358,-0.345,0.075
22.901,0.405,-0.352,0.284
22.921,0.201,-0.417,0.033
22.941,0.137,-0.755,-0.219
22.961,0.75,-0.084,-0.191
22.981,0.255,-0.834,0.046
23.001,0.203,-0.564,-0.346
23.021,-0.026,-0.761,0.207
23.041,0.263,-0.47,-0.204
23.061,0.112,-0.528,0.099
23.081,0.694,-0.602,0.141
23.101,0.574,-0.256,0.517
23.121,0.244,-0.339,-0.139
23.141,0.834,-0.63,-0.14
23.161,0.568,-0.398,-0.143
23.181,0.304,-0.246,-0.052
23.201,-0.117,-0.347,-0.214
23.221,0.839,-0.591,0.163
23.241,0.098,-0.866,0.109
23.261,0.06,-0.486,-0.137
23.281,0.616,-0.413,-0.239
23.301,0.897,-0.69,-0.178
23.321,0.669,-0.531,-0.179
23.341,0.506,-0.542,0.005
23.361,0.509,-0.251,-0.065
23.381,0.575,-0.181,0.067
23.401,0.543,-0.331,0.179
23.421,0.439,-0.578,-0.054
23.441,0.4,-0.314,0.014
23.461,0.373,-0.422,0.39
23.481,0.224,-0.551,0.018
23.501,0.33,-0.129,-0.213
23.521,0.042,-0.699,-0.135
23.541,0.346,-0.431,-0.459
23.561,0.16,-0.38,-0.03
23.581,0.123,-0.6,-0.255
23.601,0.367,-0.432,-0.321
23.621,0.628,-0.33,-0.329
23.641,0.535,-0.468,0.068
23.661,0.048,-0.429,-0.22
23.681,0.16,-0.484,-0.01
23.701,0.552,-0.344,-0.101
23.721,0.159,-0.536,-0.134
23.741,0.328,-0.569,-0.253
23.761,0.481,-0.501,-0.062
23.781,0.168,-0.272,-0.234
23.801,0.37,-0.863,-0.128
23.821,0.071,-0.694,0.06
23.841,0.205,-0.046,0.101
23.861,0.406,-0.447,-0.267
23.881,0.022,-0.569,-0.114
23.901,0.425,-0.341,-0.071
23.921,0.366,-0.654,-0.148
23.941,0.496,-0.912,-0.045
23.961,0.418,-0.445,-0.044
23.981,0.659,-0.657,0.166
24.001,0.408,-0.493,0.233
24.021,0.296,-0.443,-0.227
24.041,0.4,-0.469,0.128
24.061,0.483,-0.837,-0.111
24.081,0.378,-0.493,-0.221
24.101,0.373,-0.424,-0.051
24.121,0.22,-0.794,-0.205
24.141,0.233,-0.803,-0.149
24.161,0.09,-0.744,-0.343
24.181,0.722,-0.369,-0.12
24.201,0.138,-0.912,0.045
24.221,0.259,-0.347,0.004
24.241,0.267,-0.428,-0.065
24.261,0.582,-0.547,0.2
24.281,0.332,-0.796,0.275
24.301,0.644,-0.658,-0.045
24.321,0.264,-0.342,0.185
24.341,0.444,-0.232,-0.07
24.361,0.224,-0.69,-0.125
24.381,0.803,-0.253,0.057
24.401,0.133,-0.335,-0.151
24.421,0.42,-0.469,-0.627
24.441,0.489,-0.613,-0.209
24.461,0.453,-0.595,-0.464
24.481,0.312,-0.118,-0.243
24.501,0.292,-0.443,-0.258
24.521,0.343,-0.212,-0.251
24.541,0.293,-0.431,-0.36
24.561,0.51,-0.563,-0.39
24.581,0.748,-0.334,-0.29
24.601,0.206,-0.018,-0.224
24.621,0.053,-0.572,-0.214
24.641,0.306,-0.262,-0.09
24.661,0.847,-0.418,0.012
24.681,0.173,-0.749,-0.318
24.701,0.664,-0.752,-0.286
24.721,0.678,-0.549,0.229
24.741,0.232,-0.388,0.055
24.761,0.451,-0.299,-0.248
24.781,0.672,-0.793,-0.354
24.801,0.272,-0.365,-0.222
24.821,0.307,-0.516,-0.161
24.841,0.233,-0.492,0.027
24.861,0.14,-0.377,-0.58
24.881,0.2,-0.16,-0.312
24.901,0.079,-0.45,0.243
24.921,0.332,-0.768,-0.124
24.941,0.171,-0.539,-0.125
24.961,0.36,-0.33,-0.248
24.981,-0.012,-0.322,0.02
25.001,0.354,-0.381,-0.499
25.021,0.452,-0.631,-0.227
25.041,-0.097,-0.817,-0.573
25.061,0.364,-0.422,-0.165
25.081,0.542,-0.77,-0.265
25.101,0.041,-0.371,-0.494
25.121,0.625,-0.373,0.021
25.141,0.367,-0.594,-0.052
25.161,0.142,-0.527,0.003
25.181,0.279,-0.477,-0.501
25.201,0.402,-0.648,-0.39
25.221,0.308,-0.806,0.063
25.241,0.402,-0.538,-0.019
25.261,0.128,-0.517,0.101
25.281,0.334,-0.252,-0.224
25.301,0.016,-0.683,-0.203
25.321,0.276,-0.303,-0.064
25.341,0.109,-0.753,-0.465
25.361,0.15,-0.796,-0.157
25.381,0.54,-0.571,0.318
25.401,0.52,-0.72,-0.27
25.421,0.424,-0.779,-0.517
25.441,0.08,-0.113,-0.124
25.461,0.252,-0.562,-0.399
25.481,0.54,0.004,-0.242
25.501,0.332,-0.659,-0.014
25.521,0.781,-0.815,-0.112
25.541,0.381,-0.199,-0.323
25.561,0.341,-0.619,-0.063
25.581,0.245,-0.441,-0.571
25.601,0.325,-0.75,-0.2
25.621,0.274,-0.477,-0.312
25.641,0.46,-0.759,-0.738
25.661,0.517,-0.492,-0.519
25.681,0.187,-0.567,-0.281
25.701,0.068,-0.424,-0.138
25.721,-0.036,-0.341,-0.278
25.741,0.418,-0.416,-0.363
25.761,0.091,-0.381,-0.144
25.781,-0.114,-0.506,-0.261
25.801,0.397,-0.572,-0.121
25.821,0.813,-0.371,-0.213
25.841,0.311,-0.481,-0.453
25.861,0.461,-0.481,-0.174
25.881,0.31,-0.379,-0.118
25.901,0.289,-0.669,-0.022
25.921,0.477,-0.185,-0.39
25.941,0.235,-0.508,-0.354
25.961,0.36,-0.426,-0.107
25.981,0.361,-0.46,-0.1
26.001,0.161,-0.306,-0.371
26.021,0.505,-0.364,-0.403
26.041,0.297,-0.439,-0.359
26.061,0.184,-0.157,-0.242
26.081,0.446,-1.075,-0.439
26.101,0.147,-0.201,-0.175
26.121,0.336,-0.264,-0.585
26.141,0.325,-0.812,-0.393
26.161,0.548,-0.264,-0.186
26.181,0.43,-0.249,-0.401
26.201,0.328,-0.347,-0.296
26.221,0.509,-0.765,-0.253
26.241,0.629,-0.323,0.194
26.261,0.456,-0.264,-0.479
26.281,0.334,-0.592,-0.168
26.301,0.084,-0.405,-0.4
26.321,0.144,-0.566,-0.407
26.341,0.299,-0.325,-0.361
26.361,0.225,-0.558,-0.224
26.381,0.307,-0.605,0.089
26.401,0.361,-0.491,0.033
26.421,0.446,-0.759,-0.284
26.441,0.345,-0.508,-0.253
26.461,0.444,-0.418,-0.088
26.481,0.348,-0.308,-0.196
26.501,-0.058,-0.427,-0.338
26.521,0.162,-0.757,-0.079
26.541,0.296,-0.214,0.105
26.561,0.074,-0.184,-0.01
26.581,0.409,-0.448,0.035
26.601,0.608,-0.621,-0.264
26.621,0.537,-0.586,-0.456
26.641,0.268,-0.526,-0.625
26.661,0.591,-0.432,-0.636
26.681,0.312,-0.551,-0.259
26.701,0.211,-0.645,-0.117
26.721,0.161,-0.269,-0.057
26.741,0.223,-0.426,-0.171
26.761,0.2,-0.69,-0.371
26.781,0.287,-0.417,-0.094
26.801,0.282,-0.441,-0.49
26.821,0.249,-0.627,-0.469
26.841,0.331,-0.226,-0.127
26.861,0.495,-0.441,-0.511
26.881,0.444,-0.524,-0.421
26.901,-0.029,-0.504,-0.46
26.921,-0.237,-0.399,-0.246
26.941,0.466,-0.485,-0.152
26.961,0.014,-0.49,-0.145
26.981,0.246,-0.269,-0.382
27.001,0.053,-0.769,-0.291
27.021,-0.068,-0.737,-0.108
27.041,0.409,-0.333,-0.371
27.061,0.458,-0.023,-0.461
27.081,0.176,-0.34,-0.408
27.101,-0.219,-0.135,-0.407
27.121,0.197,-0.59,-0.285
27.141,0.393,-0.628,-0.29
27.161,0.016,-0.415,-0.311
27.181,0.341,-0.33,-0.424
27.201,0.301,-0.782,-0.451
27.221,0.429,-0.559,-0.146
27.241,0.323,-0.503,-0.21
27.261,0.105,-0.642,-0.37
27.281,0.519,-0.612,-0.287
27.301,0.233,-0.325,-0.039
27.321,0.271,-0.418,-0.291
27.341,0.092,-0.35,-0.275
27.361,0.179,-0.451,0.04
27.381,0.097,-0.687,-0.062
27.401,0.233,-0.42,-0.415
27.421,0.614,-0.702,-0.065
27.441,0.002,-0.57,-0.315
27.461,-0.04,-0.696,-0.496
27.481,0.586,-0.608,-0.015
27.501,0.248,-0.471,-0.42
27.521,0.154,-0.578,-0.382
27.541,0.509,-0.669,-0.351
27.561,0.171,-0.273,0.142
27.581,0.663,-0.515,-0.445
27.601,0.426,-0.598,-0.365
27.621,0.194,-0.703,-0.314
27.641,0.741,-0.865,-0.138
27.661,0.176,-0.526,-0.256
27.681,0.431,-0.752,-0.386
27.701,0.356,-0.316,-0.127
27.721,0.559,-0.451,0.015
27.741,0.604,-0.145,-0.591
27.761,0.297,-0.416,-0.399
27.781,0.138,-0.603,-0.163
27.801,0.378,-0.834,-0.521
27.821,0.164,-0.292,-0.305
27.841,0.693,-0.722,-0.041
27.861,0.315,-0.541,-0.161
27.881,0.204,-0.124,-0.189
27.901,0.312,-0.334,-0.14
27.921,-0.001,-0.397,-0.212
27.941,0.077,-0.29,-0.345
27.961,0.51,-0.283,-0.092
27.981,0.145,-0.154,-0.369
28.001,0.08,-0.594,-0.306
28.021,0.385,-0.553,-0.597
28.041,0.516,-0.675,-0.358
28.061,0.407,-0.505,-0.234
28.081,0.463,-0.53,-0.241
28.101,0.118,-0.848,-0.057
28.121,-0.018,-0.631,-0.325
28.141,0.57,-0.203,-0.311
28.161,0.209,-0.441,-0.335
28.181,0.229,-0.354,-0.18
28.201,0.533,-0.545,0.077
28.221,0.389,-0.881,-0.693
28.241,0.366,-0.524,-0.328
28.261,0.691,-0.296,-0.328
28.281,0.12,-0.729,-0.669
28.301,0.422,-0.341,-0.272
28.321,0.243,-0.832,-0.321
28.341,0.276,-0.467,-0.348
28.361,0.513,-0.357,-0.493
28.381,0.292,-0.514,-0.288
28.401,0.298,0.057,-0.525
28.421,0.419,-0.54,-0.444
28.441,0.133,-0.563,-0.315
28.461,0.032,-0.397,-0.061
28.481,-0.02,-0.58,-0.178
28.501,-0.217,-0.715,-0.12
28.521,0.585,-0.642,0.153
28.541,-0.049,-0.273,-0.15
28.561,0.133,-0.492,-0.429
28.581,0.118,-0.097,-0.332
28.601,0.249,-0.512,-0.406
28.621,0.338,-0.257,-0.255
28.641,0.336,-0.3,-0.321
28.661,0.051,-0.489,-0.44
28.681,0.129,-0.573,-0.065
28.701,0.214,-0.738,-0.045
28.721,0.1,-0.287,-0.218
28.741,0.457,-0.159,-0.461
28.761,0.213,-0.725,-0.228
28.781,0.255,-0.482,-0.371
28.801,0.229,-0.538,-0.002
28.821,0.334,-0.276,-0.501
28.841,0.135,-0.458,-0.124
28.861,-0.167,-0.122,-0.143
28.881,0.167,-0.444,-0.1
28.901,-0.032,-0.614,-0.238
28.921,-0.016,-0.482,-0.35
28.941,0.217,-0.476,0.209
28.961,0.36,-0.296,-0.459
28.981,0.12,-0.479,-0.146
29.001,0.174,-0.322,-0.285
29.021,0.45,-0.547,-0.214
29.041,0.166,-0.445,-0.214
29.061,0.635,-0.538,-0.508
29.081,0.251,-0.544,-0.572
29.101,-0.222,-0.126,-0.58
29.121,0.288,-0.519,-0.406
29.141,0.223,-0.454,-0.262
29.161,0.388,-0.175,-0.447
29.181,0.267,-0.238,-0.594
29.201,0.102,-0.072,-0.112
29.221,-0.119,-0.306,-0.596
29.241,0.094,-0.525,-0.187
29.261,-0.036,-0.0,-0.423
29.281,0.032,-0.296,-0.025
29.301,0.253,-0.457,-0.372
29.321,0.458,-0.442,-0.627
29.341,0.2,-0.444,-0.302
29.361,-0.125,-0.529,-0.471
29.381,0.195,-0.751,-0.134
29.401,0.323,-0.149,-0.235
29.421,-0.028,-0.467,-0.43
29.441,0.071,-0.421,-0.498
29.461,0.106,-0.046,-0.534
29.481,-0.062,-0.604,-0.425
29.501,0.23,-0.324,-0.027
29.521,0.098,-0.591,-0.329
29.541,0.212,-0.365,-0.111
29.561,-0.05,-0.383,-0.598
29.581,0.041,-0.277,-0.68
29.601,0.286,-0.21,-0.493
29.621,0.055,-0.553,-0.175
29.641,0.474,-0.17,-0.353
29.661,0.049,-0.148,-0.121
29.681,0.178,-0.476,-0.043
29.701,0.312,-0.411,-0.486
29.721,-0.178,-0.511,-0.13
29.741,-0.246,-0.477,-0.013
29.761,-0.175,-0.654,-0.08
29.781,0.387,-0.269,-0.602
29.801,0.012,-0.836,-0.639
29.821,0.629,-0.555,-0.387
29.841,0.002,-0.402,-0.378
29.861,0.167,-0.121,-0.123
29.881,0.438,-0.479,-0.498
29.901,0.541,-0.269,-0.238
29.921,0.554,-0.393,-0.556
29.941,0.385,-0.187,-0.234
29.961,0.338,-0.316,-0.415
29.981,0.259,-0.236,-0.27
30.001,0.291,-0.513,-0.416
30.021,0.037,-0.591,-0.772
30.041,-0.017,-0.318,-0.221
30.061,0.145,-0.495,-0.09
30.081,0.105,-0.392,-0.484
30.101,0.043,-0.335,-0.146
30.121,0.269,-0.166,-0.432
30.141,0.321,-0.245,-0.592
30.161,0.163,-0.54,-0.427
30.181,0.427,-0.641,-0.336
30.201,-0.096,-0.062,-0.562
30.221,0.112,-0.73,-0.028
30.241,-0.005,-0.496,-0.591
30.261,-0.239,-0.277,-0.382
30.281,0.127,-0.093,-0.481
30.301,0.107,-0.453,-0.047
30.321,0.449,-0.425,-0.612
30.341,0.285,-0.607,-0.139
30.361,-0.043,-0.421,-0.278
30.381,0.503,-0.669,-0.572
30.401,0.371,-0.597,-0.385
30.421,0.253,-0.294,-0.355
30.441,0.088,-0.525,-0.19
30.461,-0.059,-0.268,-0.463
30.481,0.079,-0.491,-0.204
30.501,0.375,-0.747,-0.318
30.521,0.536,-0.25,-0.233
30.541,0.464,-0.735,-0.494
30.561,0.073,-0.592,-0.358
30.581,-0.043,-0.516,-0.282
30.601,0.205,-0.286,-0.287
30.621,-0.184,-0.597,-0.32
30.641,0.226,-0.681,0.09
30.661,0.127,-0.471,-0.203
30.681,0.056,-0.543,-0.173
30.701,-0.169,-0.603,-0.278
30.721,0.261,-0.48,-0.231
30.741,0.044,-0.777,-0.299
30.761,-0.09,-0.885,0.025
30.781,-0.437,-0.1,-0.349
30.801,0.135,-0.492,-0.181
30.821,0.485,-0.493,0.069
30.841,0.448,-0.694,-0.226
30.861,0.022,-0.38,-0.412
30.881,-0.006,-0.669,-0.496
30.901,0.207,-1.126,-0.428
30.921,-0.088,-0.68,-0.264
30.941,0.181,-0.632,0.015
30.961,0.285,-0.601,-0.239
30.981,0.377,-0.603,-0.454
31.001,0.112,-0.694,-0.441
31.021,0.11,-0.722,-0.419
31.041,-0.027,-0.611,-0.662
31.061,-0.021,-0.881,-0.497
31.081,0.085,-0.946,-0.513
31.101,0.211,-0.533,0.159
31.121,0.306,-0.549,-0.213
31.141,-0.044,-0.403,-0.61
31.161,0.405,-0.623,-0.708
31.181,0.04,-0.802,-0.666
31.201,0.105,-0.947,-0.113
31.221,-0.039,-0.758,-0.651
31.241,-0.39,-0.498,-0.05
31.261,0.274,-0.303,-0.332
31.281,0.255,-0.576,-0.426
31.301,0.056,-0.828,-0.611
31.321,0.137,-0.753,-0.136
31.341,0.232,-0.751,-0.281
31.361,-0.175,-0.661,-0.199
31.381,0.03,-0.341,-0.421
31.401,0.31,-0.31,-0.232
31.421,-0.091,-0.575,-0.072
31.441,0.221,-0.521,-0.228
31.461,-0.118,-0.722,-0.568
31.481,0.258,-0.891,-0.239
31.501,0.169,-0.192,-0.182
31.521,-0.125,-1.021,-0.002
31.541,0.43,-0.922,-0.215
31.561,0.054,-0.202,-0.109
31.581,0.043,-0.557,-0.216
31.601,0.226,-0.783,-0.609
31.621,0.424,-0.428,-0.168
31.641,-0.004,-0.407,-0.309
31.661,0.207,-0.833,0.054
31.681,0.272,-0.678,-0.652
31.701,0.314,-0.393,-0.6
31.721,0.217,-0.726,-0.227
31.741,0.101,-0.506,-0.072
31.761,0.015,-0.288,-0.406
31.781,0.197,-1.061,-0.395
31.801,-0.032,-0.638,-0.354
31.821,-0.389,-0.52,-0.482
31.841,0.288,-0.937,-0.187
31.861,0.386,-0.665,-0.464
31.881,-0.273,-0.337,-0.229
31.901,0.003,-0.676,-0.638
31.921,0.328,-0.832,-0.038
31.941,0.603,-0.311,-0.793
31.961,0.194,-0.45,-0.581
31.981,0.057,-0.556,0.082
32.001,0.157,-0.558,-0.351
32.021,0.472,-0.324,-0.488
32.041,0.067,-0.497,-0.609
32.061,0.036,-0.436,-0.447
32.081,0.098,-0.709,-0.284
32.101,0.006,-0.971,-0.256
32.121,0.211,-0.461,-0.28
32.141,0.517,-0.378,-0.704
32.161,0.253,-0.631,-0.311
32.181,0.139,-0.41,-0.272
32.201,0.134,-0.653,-0.254
32.221,-0.118,-0.597,-0.327
32.241,0.369,-0.225,-0.576
32.261,0.164,-0.633,-0.525
32.281,0.138,-0.648,-0.086
32.301,0.81,-0.954,-0.495
32.321,0.213,-0.449,-0.483
32.341,-0.002,-0.72,-0.397
32.361,0.074,-0.543,-0.588
32.381,0.379,-0.615,-0.211
32.401,0.179,-0.636,-0.607
32.421,-0.136,-0.569,-0.137
32.441,0.329,-0.551,-0.62
32.461,0.01,-0.314,-0.401
32.481,0.521,-0.234,-0.286
32.501,0.358,-0.409,-0.179
32.521,0.048,-0.306,-0.37
32.541,0.407,-0.403,-0.455
32.561,0.166,-0.477,-0.054
32.581,0.309,-0.3,-0.303
32.601,0.214,-0.862,-0.362
32.621,-0.038,-0.729,-0.686
32.641,0.012,-0.748,-0.271
32.661,0.348,-0.638,-0.306
32.681,0.077,-0.433,-0.577
32.701,0.063,-0.787,-0.468
32.721,-0.046,-0.455,-0.293
32.741,0.232,-0.67,-0.223
32.761,0.57,-0.616,-0.518
32.781,-0.047,-0.49,-0.521
32.801,0.174,-0.196,-0.31
32.821,0.453,-0.652,-0.511
32.841,0.163,-0.529,-0.387
32.861,0.276,-0.734,0.001
32.881,-0.028,-0.659,-0.348
32.901,0.242,-0.736,-0.139
32.921,0.126,-0.492,-0.612
32.941,0.372,-0.465,-0.51
32.961,0.409,-0.418,-0.536
32.981,0.679,-0.71,-0.594
33.001,0.286,-0.476,-0.718
33.021,0.245,-0.562,-0.338
33.041,0.21,-0.602,-0.302
33.061,0.105,-0.847,-0.56
33.081,0.239,-0.571,-0.507
33.101,0.116,-0.557,-0.337
33.121,0.222,-0.564,-0.341
33.141,0.457,-0.502,-0.149
33.161,-0.014,-0.433,-0.148
33.181,0.41,-0.791,-0.509
33.201,0.465,-0.603,-0.412
33.221,0.191,-0.453,-0.597
33.241,-0.214,-0.616,-0.099
33.261,0.087,-0.377,-0.351
33.281,0.465,-0.545,-0.199
33.301,0.203,-0.947,-0.477
33.321,0.015,-0.398,-0.214
33.341,0.119,-0.569,-0.266
33.361,0.396,-0.89,-0.141
33.381,0.33,-0.591,-0.659
33.401,0.174,-0.804,-0.364
33.421,0.157,-0.415,-0.156
33.441,0.167,-0.559,-0.554
33.461,0.039,-0.728,-0.255
33.481,0.552,-0.381,-0.243
33.501,0.176,-0.448,-0.224
33.521,0.464,-0.609,-0.286
33.541,0.538,-0.834,-0.224
33.561,0.456,-0.749,-0.261
33.581,0.172,-0.749,-0.11
33.601,0.344,-0.427,-0.483
33.621,0.249,-0.897,-0.274
33.641,0.094,-0.563,-0.082
33.661,0.342,-0.609,-0.475
33.681,0.016,-0.357,-0.448
33.701,0.499,-0.511,-0.21
33.721,0.159,-0.445,-0.034
33.741,0.287,-0.639,-0.345
33.761,0.307,-0.787,-0.276
33.781,0.199,-0.616,-0.208
33.801,0.371,-0.393,-0.378
33.821,0.163,-0.393,0.154
33.841,0.446,-0.623,-0.457
33.861,-0.011,-0.708,-0.239
33.881,0.289,-0.742,-0.241
33.901,0.653,-0.576,-0.698
33.921,0.063,-0.508,-0.423
33.941,0.115,-0.241,-0.522
33.961,0.357,-0.528,-0.096
33.981,0.281,-0.426,-0.552
34.001,0.298,-0.712,-0.02
34.021,0.324,-0.557,-0.43
34.041,0.359,-0.534,-0.01
34.061,0.446,-0.601,-0.469
34.081,0.288,-0.572,-0.097
34.101,0.157,-0.546,0.017
34.121,0.352,-0.476,-0.053
34.141,0.59,-0.334,-0.408
34.161,0.17,-1.034,0.055
34.181,-0.014,-0.358,-0.075
34.201,0.395,-0.908,-0.668
34.221,0.15,-0.5,-0.168
34.241,-0.265,-0.084,0.375
34.261,0.341,-0.559,0.006
34.281,0.066,-0.53,-0.312
34.301,0.165,-0.624,-0.124
34.321,0.248,-0.429,-0.316
34.341,0.226,-0.494,-0.052
34.361,0.33,-0.684,-0.418
34.381,0.103,-0.598,-0.021
34.401,0.294,-0.766,-0.079
34.421,0.129,-0.557,-0.14
34.441,0.328,-0.608,0.165
34.461,0.297,-0.512,-0.038
34.481,-0.021,-0.685,-0.037
34.501,0.387,-0.608,-0.011
34.521,0.068,-0.57,-0.087
34.541,0.33,-0.56,-0.13
34.561,0.249,-0.518,-0.365
34.581,0.539,-0.611,-0.366
34.601,0.135,-0.736,-0.143
34.621,0.132,-0.562,-0.118
34.641,0.203,-0.625,-0.252
34.661,0.145,-0.388,-0.342
34.681,0.359,-0.372,-0.29
34.701,-0.123,-0.882,-0.279
34.721,-0.02,-0.488,-0.218
34.741,-0.025,-0.445,-0.321
34.761,0.37,-0.88,-0.03
34.781,0.53,-0.499,-0.287
34.801,0.162,-0.448,-0.393
34.821,0.148,-0.831,-0.276
34.841,0.179,-0.689,-0.481
34.861,0.394,-0.608,0.151
34.881,-0.028,-0.528,-0.115
34.901,0.196,-0.856,-0.236
34.921,0.341,-0.42,0.053
34.941,0.221,-1.065,-0.269
34.961,0.147,-0.399,-0.255
34.981,0.293,-0.551,-0.399
35.001,-0.44,-0.792,-0.437
35.021,0.236,-0.51,-0.214
35.041,-0.057,-0.896,-0.043
35.061,-0.282,-0.676,-0.431
35.081,0.191,-0.667,-0.306
35.101,0.362,-0.661,-0.282
35.121,0.063,-0.875,-0.109
35.141,0.28,-0.804,-0.338
35.161,0.408,-0.674,-0.099
35.181,0.35,-0.841,-0.112
35.201,0.415,-0.649,-0.378
35.221,0.228,-0.828,-0.315
35.241,0.102,-0.513,-0.231
35.261,-0.242,-0.397,-0.343
35.281,0.026,-0.782,-0.44
35.301,-0.085,-0.547,0.043
35.321,0.529,-0.773,-0.611
35.341,0.069,-0.92,-0.201
35.361,0.112,-0.829,0.028
35.381,0.196,-0.756,-0.409
35.401,0.083,-1.134,-0.241
35.421,0.403,-0.652,-0.061
35.441,-0.067,-0.754,-0.853
35.461,0.093,-0.575,-0.249
35.481,-0.1,-0.645,-0.555
35.501,-0.242,-0.734,-0.049
35.521,-0.098,-0.832,-0.396
35.541,0.016,-0.449,0.112
35.561,-0.05,-0.312,-0.451
35.581,-0.103,-0.819,-0.166
35.601,-0.265,-0.548,-0.45
35.621,-0.014,-0.895,-0.316
35.641,-0.315,-0.875,-0.251
35.661,0.135,-0.816,-0.239
35.681,0.015,-0.595,0.105
35.701,-0.288,-0.944,0.052
35.721,-0.056,-0.424,-0.4
35.741,-0.156,-0.53,-0.24
35.761,0.062,-0.59,-0.471
35.781,0.264,-0.777,-0.518
35.801,-0.377,-0.541,-0.358
35.821,0.027,-1.286,0.141
35.841,-0.033,-0.621,-0.558
35.861,0.136,-0.676,-0.099
35.881,0.063,-1.087,-0.108
35.901,-0.118,-0.634,-0.332
35.921,-0.022,-0.584,-0.066
35.941,-0.094,-1.07,-0.077
35.961,0.3,-0.928,-0.22
35.981,0.105,-0.283,-0.237
36.001,0.47,-0.737,-0.258
36.021,0.066,-0.505,-0.363
36.041,-0.076,-0.471,-0.154
36.061,-0.229,-0.603,-0.283
36.081,-0.279,-0.479,-0.149
36.101,-0.231,-1.116,-0.299
36.121,0.129,-0.733,-0.307
36.141,0.187,-1.308,-0.286
36.161,-0.234,-1.043,0.071
36.181,0.259,-0.787,-0.454
36.201,-0.009,-0.817,0.189
36.221,0.115,-0.681,-0.019
36.241,0.407,-0.7,-0.491
36.261,0.25,-0.679,-0.292
36.281,0.002,-0.677,-0.489
36.301,-0.113,-0.643,-0.052
36.321,-0.362,-0.924,0.082
36.341,-0.084,-0.886,-0.132
36.361,0.021,-0.751,0.08
36.381,-0.134,-0.738,-0.14
36.401,0.025,-0.931,0.03
36.421,0.065,-0.508,-0.096
36.441,0.008,-0.573,-0.126
36.461,-0.094,-0.884,0.017
36.481,0.078,-0.755,-0.163
36.501,0.135,-0.294,0.16
36.521,-0.154,-0.665,-0.197
36.541,0.359,-0.611,-0.019
36.561,0.073,-0.801,-0.252
36.581,0.089,-0.743,-0.428
36.601,0.233,-0.389,-0.059
36.621,0.139,-0.685,-0.494
36.641,0.298,-0.718,0.29
36.661,0.179,-0.702,-0.222
36.681,0.016,-0.198,-0.184
36.701,0.208,-0.698,-0.217
36.721,-0.105,-0.862,-0.127
36.741,0.136,-0.819,-0.096
36.761,0.112,-0.535,-0.339
36.781,0.065,-0.978,-0.654
36.801,0.083,-0.592,-0.354
36.821,-0.27,-0.833,-0.237
36.841,-0.026,-1.062,-0.09
36.861,0.105,-0.878,-0.09
36.881,0.125,-0.667,0.032
36.901,-0.1,-0.394,-0.46
36.921,0.353,-0.471,-0.319
36.941,-0.084,-0.711,-0.22
36.961,0.279,-0.47,0.182
36.981,0.159,-0.725,0.428
37.001,-0.05,-0.952,-0.384
37.021,0.435,-0.648,0.097
37.041,-0.171,-0.951,-0.09
37.061,0.248,-0.465,0.005
37.081,0.279,-0.466,-0.358
37.101,-0.055,-0.803,0.189
37.121,0.35,-0.599,-0.519
37.141,0.016,-0.603,-0.338
37.161,0.126,-0.468,-0.132
37.181,0.138,-0.904,-0.197
37.201,0.049,-0.539,-0.059
37.221,0.252,-0.922,-0.205
37.241,0.246,-0.507,-0.141
37.261,-0.25,-0.454,-0.101
37.281,0.349,-0.794,-0.09
37.301,-0.229,-0.421,-0.01
37.321,0.328,-0.994,0.141
37.341,0.365,-0.453,-0.192
37.361,-0.078,-0.374,0.253
37.381,0.058,-0.587,-0.008
37.401,-0.088,-0.7,0.225
37.421,0.08,-0.6,-0.086
37.441,0.07,-0.787,-0.185
37.461,0.288,-0.137,-0.003
37.481,0.399,-0.767,0.495
37.501,0.42,-0.382,-0.284
37.521,0.016,-0.794,0.132
37.541,0.074,-0.326,0.031
37.561,-0.213,-0.239,0.082
37.581,-0.033,-0.546,-0.223
37.601,0.32,-0.558,0.113
37.621,0.454,-0.817,0.09
37.641,-0.101,-0.85,-0.268
37.661,0.036,-0.557,0.051
37.681,0.152,-0.318,-0.026
37.701,0.218,-0.73,-0.059
37.721,0.015,-0.187,-0.012
37.741,0.257,-0.751,0.223
37.761,0.08,-0.572,0.103
37.781,0.172,-0.58,-0.194
37.801,0.277,-0.643,0.102
37.821,0.167,-1.018,0.016
37.841,0.069,-0.74,-0.11
37.861,0.145,-0.58,-0.241
37.881,0.145,-0.615,0.163
37.901,0.09,-0.469,-0.116
37.921,0.123,-0.446,0.189
37.941,0.508,-0.645,-0.209
37.961,0.301,-0.79,0.395
37.981,0.129,-0.28,0.529
38.001,0.335,-0.859,0.104
38.021,0.133,-0.712,0.25
38.041,0.423,-0.768,-0.114
38.061,0.278,-0.446,-0.126
38.081,0.185,-0.344,0.212
38.101,0.305,-0.634,-0.01
38.121,-0.096,-0.531,-0.299
38.141,-0.002,-0.489,0.004
38.161,-0.017,-0.228,-0.253
38.181,0.258,-0.945,-0.057
38.201,0.582,-0.446,0.197
38.221,0.691,-0.519,0.272
38.241,0.358,-0.668,0.031
38.261,0.319,-0.516,0.247
38.281,-0.14,-0.438,-0.09
38.301,0.107,-0.47,0.354
38.321,0.071,-0.164,-0.116
38.341,0.095,-0.567,-0.137
38.361,0.195,-0.579,-0.065
38.381,0.117,-0.606,-0.11
38.401,-0.199,-0.456,0.143
38.421,0.346,-0.57,0.274
38.441,-0.015,-0.569,0.01
38.461,0.254,-0.589,0.06
38.481,0.631,-0.625,-0.271
38.501,0.035,-0.722,0.015
38.521,-0.288,-0.518,0.359
38.541,0.153,-0.675,0.303
38.561,0.413,-0.498,-0.213
38.581,0.591,-0.62,-0.059
38.601,-0.055,-0.732,0.713
38.621,0.291,-0.331,0.107
38.641,0.108,-0.651,0.337
38.661,0.21,-0.508,0.347
38.681,0.759,-0.77,-0.17
38.701,-0.082,-1.031,0.191
38.721,0.271,-0.735,0.078
38.741,0.296,-1.058,0.399
38.761,0.418,-0.677,0.449
38.781,0.221,-0.333,-0.121
38.801,0.264,-0.806,0.733
38.821,0.136,-1.053,0.083
38.841,0.276,-0.344,0.175
38.861,0.146,-0.741,-0.459
38.881,0.353,-0.662,0.265
38.901,0.167,-0.51,-0.361
38.921,0.308,-0.558,0.067
38.941,0.21,-0.502,-0.015
38.961,0.419,-0.463,0.18
38.981,0.19,-0.999,0.127
39.001,-0.144,-0.937,0.198
39.021,0.459,-0.424,0.319
39.041,0.025,-0.813,-0.149
39.061,0.081,-0.8,-0.014
39.081,0.096,-0.917,-0.131
39.101,0.493,-0.747,-0.144
39.121,-0.188,-0.73,0.425
39.141,0.865,-0.859,-0.214
39.161,0.451,-0.892,-0.143
39.181,0.279,-0.614,0.47
39.201,0.234,-0.838,0.012
39.221,0.317,-0.809,0.035
39.241,0.367,-1.144,0.122
39.261,0.396,-0.314,-0.205
39.281,0.392,-0.512,-0.143
39.301,0.294,-0.802,-0.071
39.321,0.24,-0.878,0.267
39.341,0.233,-0.704,0.191
39.361,0.226,-0.705,-0.078
39.381,0.49,-0.946,0.019
39.401,0.394,-1.197,0.195
39.421,-0.315,-0.806,-0.446
39.441,0.401,-1.004,0.091
39.461,0.325,-0.668,0.188
39.481,0.28,-0.671,-0.156
39.501,0.213,-0.897,0.161
39.521,0.53,-0.802,0.046
39.541,0.488,-0.343,0.406
39.561,0.153,-0.52,-0.079
39.581,0.382,-0.777,0.126
39.601,0.112,-0.208,-0.289
39.621,0.039,-0.923,0.029
39.641,0.184,-0.847,0.173
39.661,0.46,-0.722,-0.09
39.681,0.467,-1.003,0.236
39.701,0.381,-0.354,0.202
39.721,0.412,-0.671,0.046
39.741,0.367,-0.872,-0.038
39.761,0.14,-0.642,-0.575
39.781,0.352,-0.687,-0.081
39.801,0.426,-0.77,0.275
39.821,0.411,-0.946,-0.004
39.841,0.516,-0.973,0.143
39.861,0.413,-0.253,-0.041
39.881,0.341,-0.949,-0.228
39.901,0.49,-0.349,0.202
39.921,0.261,-0.857,-0.202
39.941,0.09,-0.547,0.014
39.961,0.231,-0.593,0.143
39.981,0.123,-0.555,-0.073
40.001,0.137,-0.55,0.37
40.021,0.237,-0.999,0.444
40.041,0.111,-0.806,-0.12
40.061,0.219,-0.952,-0.12
40.081,-0.101,-0.646,-0.054
40.101,0.321,-0.946,0.278
40.121,0.277,-1.053,0.126
40.141,0.118,-0.713,0.172
40.161,0.405,-1.1,0.277
40.181,0.48,-0.609,-0.171
40.201,-0.016,-0.903,0.105
40.221,0.15,-0.823,0.016
40.241,0.17,-1.112,0.087
40.261,0.111,-0.342,0.234
40.281,0.474,-0.966,-0.023
40.301,0.306,-0.72,-0.129
40.321,0.29,-1.017,-0.196
40.341,-0.049,-0.828,0.343
40.361,0.487,-0.31,-0.017
40.381,0.11,-0.591,-0.297
40.401,0.376,-0.795,0.246
40.421,0.436,-0.644,-0.372
40.441,0.644,-0.758,-0.338
40.461,0.116,-0.664,-0.092
40.481,-0.217,-0.497,-0.147
40.501,0.417,-0.718,0.026
40.521,0.742,-0.608,-0.402
40.541,0.635,-0.612,0.055
40.561,0.422,-0.717,0.259
40.581,0.297,-0.812,-0.197
40.601,0.56,-0.785,-0.084
40.621,0.197,-0.55,-0.161
40.641,0.476,-0.533,0.089
40.661,0.479,-0.913,-0.198
40.681,0.588,-0.744,-0.228
40.701,0.932,-0.837,-0.005
40.721,0.447,-0.554,0.081
40.741,0.261,-0.812,0.042
40.761,0.373,-0.283,-0.06
40.781,0.009,-0.676,0.163
40.801,0.218,-0.473,0.057
40.821,0.263,-0.885,-0.236
40.841,0.243,-0.681,-0.554
40.861,0.386,-0.6,0.093
40.881,0.227,-0.929,-0.07
40.901,0.625,-0.721,-0.229
40.921,0.389,-0.511,0.313
40.941,0.393,-0.782,0.313
40.961,0.329,-0.893,0.233
40.981,0.421,-0.375,0.024
41.001,0.555,-0.963,-0.651
41.021,0.226,-0.686,0.214
41.041,0.276,-0.853,-0.194
41.061,0.333,-0.893,-0.127
41.081,0.125,-0.556,0.158
41.101,0.22,-0.736,0.384
41.121,0.291,-0.626,0.299
41.141,0.556,-1.154,0.02
41.161,0.442,-0.611,0.136
41.181,0.426,-0.87,-0.226
41.201,0.55,-1.09,-0.314
41.221,0.353,-0.345,0.216
41.241,0.458,-0.598,0.061
41.261,0.358,-0.664,-0.282
41.281,0.427,-0.459,-0.01
41.301,0.233,-0.668,0.135
41.321,-0.119,-0.862,0.209
41.341,0.329,-0.754,0.165
41.361,0.643,-0.852,-0.039
41.381,0.547,-0.797,-0.134
41.401,0.577,-0.932,0.064
41.421,0.654,-0.882,0.207
41.441,0.429,-0.496,0.222
41.461,0.44,-0.618,0.363
41.481,0.267,-0.793,0.065
41.501,0.321,-0.892,-0.154
41.521,0.507,-0.778,0.286
41.541,0.62,-1.041,0.066
41.561,0.342,-0.682,-0.208
41.581,0.281,-0.516,0.159
41.601,0.362,-0.233,0.321
41.621,0.496,-0.93,0.11
41.641,0.079,-0.539,0.316
41.661,-0.098,-0.88,-0.072
41.681,0.252,-0.976,-0.104
41.701,0.105,-0.964,0.221
41.721,0.244,-0.707,-0.022
41.741,0.301,-0.919,0.301
41.761,0.239,-0.844,0.102
41.781,0.612,-0.814,0.321
41.801,0.382,-0.866,0.18
41.821,0.378,-0.873,-0.101
41.841,0.438,-1.204,-0.307
41.861,0.093,-0.693,0.246
41.881,0.519,-0.694,0.212
41.901,0.291,-0.875,-0.106
41.921,0.437,-0.626,0.269
41.941,0.097,-0.41,0.392
41.961,0.011,-0.694,-0.043
41.981,0.476,-0.433,-0.293
42.001,0.383,-0.258,0.303
42.021,0.108,-0.185,0.354
42.041,0.115,-0.936,-0.045
42.061,0.514,-0.929,0.272
42.081,0.066,-0.791,0.195
42.101,0.63,-0.659,0.103
42.121,0.12,-0.361,0.237
42.141,0.424,-0.547,0.007
42.161,0.236,-0.91,-0.105
42.181,0.425,-0.791,0.194
42.201,0.199,-0.7,0.17
42.221,0.297,-0.983,-0.367
42.241,0.323,-0.682,-0.092
42.261,0.087,-0.935,0.017
42.281,0.443,-1.025,0.265
42.301,0.191,-0.897,-0.149
42.321,0.243,-0.608,0.089
42.341,0.1,-0.608,0.531
42.361,-0.212,-0.67,0.15
42.381,0.258,-0.485,0.162
42.401,0.787,-0.511,0.122
42.421,0.469,-0.648,0.323
42.441,0.315,-0.68,0.131
42.461,0.254,-0.675,0.068
42.481,0.303,-0.738,0.138
42.501,0.41,-1.143,0.382
42.521,0.07,-0.485,0.203
42.541,0.543,-0.629,0.132
42.561,0.457,-0.965,0.34
42.581,0.458,-0.445,0.012
42.601,0.413,-0.848,-0.524
42.621,0.328,-0.744,0.215
42.641,0.461,-0.52,0.195
42.661,0.444,-0.684,-0.007
42.681,0.26,-0.461,0.047
42.701,0.222,-0.797,0.352
42.721,0.341,-0.373,0.184
42.741,0.636,-0.861,0.384
42.761,0.096,-0.448,0.139
42.781,0.036,-1.163,0.045
42.801,0.366,-0.928,0.213
42.821,0.349,-0.664,0.145
42.841,0.36,-0.827,0.161
42.861,0.367,-0.755,0.028
42.881,0.266,-0.741,-0.031
42.901,0.611,-0.976,-0.019
42.921,-0.021,-0.957,0.197
42.941,0.127,-0.689,0.235
42.961,0.276,-0.869,-0.42
42.981,-0.024,-0.472,-0.012
43.001,0.27,-0.792,-0.176
43.021,0.627,-0.614,0.039
43.041,0.296,-0.683,0.021
43.061,0.34,-0.883,0.183
43.081,0.057,-1.155,0.178
43.101,0.19,-0.524,0.548
43.121,0.259,-0.953,0.196
43.141,0.279,-0.828,0.221
43.161,0.611,-0.799,-0.197
43.181,0.46,-0.781,0.021
43.201,0.134,-0.581,-0.125
43.221,0.407,-0.772,0.199
43.241,0.482,-0.805,0.112
43.261,0.607,-0.569,0.035
43.281,0.713,-0.644,0.285
43.301,0.211,-0.913,0.049
43.321,0.246,-0.985,0.364
43.341,0.16,-0.916,0.371
43.361,0.35,-0.763,-0.006
43.381,0.508,-1.001,0.34
43.401,0.591,-0.737,0.141
43.421,0.362,-0.776,0.05
43.441,0.312,-1.248,0.209
43.461,0.397,-1.013,-0.178
43.481,0.189,-1.306,0.027
43.501,0.771,-0.785,0.244
43.521,0.041,-0.503,0.095
43.541,0.409,-1.088,0.372
43.561,0.782,-0.984,0.068
43.581,0.383,-0.746,0.167
43.601,0.344,-0.92,0.119
43.621,0.321,-0.924,-0.172
43.641,0.358,-0.597,0.183
43.661,0.661,-0.805,0.179
43.681,-0.059,-0.986,-0.288
43.701,0.693,-1.103,-0.38
43.721,0.11,-0.271,0.023
43.741,0.344,-0.5,0.347
43.761,0.3,-0.816,0.641
43.781,0.512,-0.723,-0.257
43.801,0.071,-0.84,0.432
43.821,0.488,-0.631,0.334
43.841,0.785,-0.896,-0.019
43.861,0.113,-0.826,0.468
43.881,0.433,-0.645,0.183
43.901,0.258,-0.436,0.033
43.921,0.479,-0.577,-0.278
43.941,0.4,-0.454,0.098
43.961,0.261,-0.769,0.091
43.981,0.496,-0.824,0.528
44.001,0.757,-1.093,-0.113
44.021,0.354,-0.697,-0.109
44.041,0.543,-0.628,-0.025
44.061,0.142,-0.779,0.612
44.081,0.216,-0.885,-0.129
44.101,0.503,-0.479,0.364
44.121,0.71,-0.607,-0.208
44.141,0.484,-0.468,0.196
44.161,0.343,-0.919,0.131
44.181,0.399,-0.873,-0.024
44.201,0.142,-0.511,0.257
44.221,0.508,-0.76,-0.06
44.241,0.594,-0.856,-0.243
44.261,0.333,-0.837,0.022
44.281,0.322,-0.758,-0.1
44.301,0.479,-0.561,0.128
44.321,0.358,-0.785,0.016
44.341,0.427,-0.581,0.371
44.361,0.855,-0.646,0.01
44.381,0.368,-0.932,0.134
44.401,0.343,-0.94,-0.152
44.421,0.293,-0.862,-0.008
44.441,0.568,-1.038,-0.1
44.461,0.373,-0.874,0.313
44.481,0.264,-0.473,-0.087
44.501,0.661,-0.802,-0.054
44.521,0.675,-0.96,0.132
44.541,0.291,-0.42,-0.074
44.561,0.038,-0.993,0.343
44.581,0.605,-1.002,0.438
44.601,0.276,-0.576,-0.128
44.621,0.591,-0.677,0.222
44.641,0.057,-0.86,-0.116
44.661,0.62,-0.652,-0.023
44.681,0.187,-0.754,0.175
44.701,0.562,-1.058,0.075
44.721,0.426,-1.303,0.065
44.741,0.23,-0.94,0.237
44.761,0.332,-0.603,0.221
44.781,0.559,-0.908,0.045
44.801,0.434,-0.716,-0.094
44.821,0.54,-0.784,0.029
44.841,0.808,-1.152,-0.186
44.861,0.097,-0.886,0.168
44.881,0.747,-0.743,-0.011
44.901,0.446,-0.97,-0.183
44.921,0.235,-0.885,0.288
44.941,0.163,-0.73,0.012
44.961,0.403,-0.792,-0.117
44.981,0.64,-0.598,0.261
45.002,0.413,-0.733,0.271
45.022,0.743,-1.002,-0.362
45.042,0.144,-0.914,0.239
45.062,0.426,-0.821,0.07
45.082,0.184,-0.56,0.225
45.102,0.49,-0.915,0.021
45.122,0.596,-1.175,0.099
45.142,0.35,-0.735,-0.04
45.162,-0.085,-0.994,0.226
45.182,0.486,-1.108,-0.119
45.202,0.535,-0.842,0.226
45.222,0.52,-0.637,0.076
45.242,0.705,-0.941,0.195
45.262,0.242,-0.733,-0.147
45.282,0.58,-0.684,0.125
45.302,0.668,-0.659,0.143
45.322,0.072,-0.966,0.386
45.342,0.501,-1.046,0.158
45.362,0.336,-1.015,-0.096
45.382,0.405,-0.655,-0.107
45.402,0.492,-0.692,0.171
45.422,0.336,-1.02,-0.079
45.442,0.297,-0.404,-0.079
45.462,0.454,-1.052,-0.139
45.482,0.221,-0.624,0.06
45.502,0.23,-0.514,0.083
45.522,0.588,-0.807,-0.027
45.542,0.228,-0.969,0.396
45.562,0.595,-0.957,0.16
45.582,0.551,-0.868,0.409
45.602,0.116,-0.609,0.08
45.622,0.322,-1.067,-0.091
45.642,0.699,-1.209,-0.14
45.662,0.267,-0.757,0.034
45.682,0.368,-0.719,0.223
45.702,0.552,-0.435,0.004
45.722,0.602,-1.106,0.243
45.742,0.395,-0.862,0.364
45.762,0.332,-0.599,-0.072
45.782,0.738,-0.806,-0.117
45.802,0.803,-0.872,0.279
45.822,0.637,-0.677,0.146
45.842,0.462,-0.947,0.161
45.862,0.271,-0.665,0.233
45.882,0.259,-1.067,-0.215
45.902,0.518,-1.119,0.183
45.922,0.487,-0.869,0.121
45.942,0.685,-1.324,0.187
45.962,0.521,-0.796,-0.09
45.982,0.078,-1.169,0.112
46.002,0.605,-0.762,-0.006
46.022,0.214,-0.781,0.288
46.042,0.346,-0.825,0.059
46.062,0.47,-0.724,-0.046
46.082,0.831,-0.777,-0.118
46.102,1.059,-0.879,0.254
46.122,0.539,-0.447,0.292
46.142,0.392,-0.737,0.45
46.162,0.523,-0.651,0.001
46.182,0.589,-0.596,-0.132
46.202,0.35,-0.678,0.033
46.222,0.776,-0.385,-0.079
46.242,0.467,-0.761,-0.069
46.262,0.533,-0.782,0.167
46.282,0.569,-0.899,0.284
46.302,0.522,-0.846,0.148
46.322,0.62,-0.948,0.089
46.342,0.328,-0.648,0.212
46.362,0.339,-0.972,0.012
46.382,0.235,-0.771,0.341
46.402,0.563,-0.663,0.646
46.422,0.624,-0.73,-0.085
46.442,0.543,-0.944,0.266
46.462,0.786,-0.617,0.262
46.482,0.464,-0.765,0.132
46.502,0.605,-1.334,0.288
46.522,0.247,-0.946,0.123
46.542,0.388,-0.459,0.182
46.562,0.595,-0.441,0.066
46.582,0.608,-0.625,0.085
46.602,0.377,-0.561,0.185
46.622,0.411,-0.88,0.143
46.642,0.119,-0.763,-0.161
46.662,0.336,-0.444,0.158
46.682,0.603,-0.582,0.027
46.702,0.549,-0.655,-0.023
46.722,0.529,-0.693,0.303
46.742,0.439,-0.421,-0.082
46.762,0.441,-0.443,0.039
46.782,0.311,-0.538,-0.125
46.802,0.579,-0.651,-0.003
46.822,0.528,-0.738,0.575
46.842,0.54,-0.537,-0.055
46.862,0.335,-0.891,0.048
46.882,0.027,-0.826,0.355
46.902,0.681,-0.94,0.169
46.922,0.365,-0.4,0.052
46.942,0.279,-0.791,-0.062
46.962,0.595,-0.558,0.215
46.982,0.388,-0.664,0.003
47.002,0.69,-0.056,0.501
47.022,0.627,-0.536,-0.01
47.042,0.631,-0.985,0.39
47.062,0.201,-0.359,0.234
47.082,0.727,-0.674,0.233
47.102,0.524,-0.643,0.031
47.122,0.387,-0.756,-0.033
47.142,0.495,-0.585,0.01
47.162,0.114,-0.594,0.277
47.182,0.545,-0.758,0.176
47.202,0.249,-0.732,-0.298
47.222,0.185,-0.631,-0.169
47.242,0.146,-1.136,0.06
47.262,0.674,-0.963,0.189
47.282,0.316,-0.343,0.032
47.302,0.739,-0.589,-0.032
47.322,0.31,-0.759,-0.136
47.342,0.079,-0.993,0.248
47.362,0.191,-0.669,0.079
47.382,0.669,-0.468,0.407
47.402,0.369,-0.131,-0.21
47.422,0.276,-0.268,0.187
47.442,0.416,-0.804,0.158
47.462,0.478,-0.72,0.219
47.482,0.59,-0.919,0.211
47.502,0.653,-0.79,-0.069
47.522,0.289,-0.655,-0.002
47.542,0.104,-0.679,0.085
47.562,0.29,-0.192,-0.167
47.582,0.436,-0.863,0.236
47.602,0.206,-0.604,-0.451
47.622,0.201,-1.015,-0.177
47.642,0.472,-0.557,-0.283
47.662,0.403,-0.891,0.267
47.682,0.418,-0.394,0.088
47.702,0.265,-0.687,-0.054
47.722,0.373,-0.916,0.061
47.742,0.234,-1.079,0.103
47.762,0.599,-0.86,-0.195
47.782,0.631,-0.631,0.084
47.802,0.065,-0.621,0.32
47.822,0.238,-0.814,0.353
47.842,0.132,-0.534,0.207
47.862,0.29,-0.951,0.085
47.882,0.403,-1.314,0.216
47.902,0.132,-0.673,0.154
47.922,0.212,-0.455,-0.216
47.942,0.193,-0.459,-0.18
47.962,0.44,-0.964,0.141
47.982,0.411,-0.796,-0.113
48.002,0.244,-0.547,-0.182
48.022,0.431,-0.83,0.289
48.042,0.278,-0.679,0.042
48.062,0.335,-0.828,0.024
48.082,0.723,-0.928,-0.207
48.102,0.656,-0.892,-0.052
48.122,0.129,-0.521,-0.019
48.142,0.549,-0.692,-0.143
48.162,0.554,-0.458,-0.214
48.182,0.154,-0.605,0.385
48.202,0.556,-0.38,0.327
48.222,0.696,-0.547,0.029
48.242,0.144,-0.556,-0.207
48.262,0.177,-0.729,-0.291
48.282,0.578,-0.091,-0.032
48.302,0.44,-0.657,-0.396
48.322,0.476,-1.071,-0.035
48.342,0.427,-0.62,-0.344
48.362,0.417,-0.883,0.044
48.382,0.075,-0.483,0.112
48.402,0.543,-0.54,0.036
48.422,0.571,-0.732,0.516
48.442,0.298,-0.863,0.026
48.462,0.35,-0.653,0.418
48.482,0.07,-0.807,0.137
48.502,0.498,-0.516,0.496
48.522,0.519,-0.571,-0.264
48.542,0.391,-0.11,-0.133
48.562,0.61,-0.78,0.02
48.582,0.31,-0.767,0.409
48.602,0.476,-0.717,0.037
48.622,0.164,-0.709,-0.058
48.642,0.384,-0.484,0.218
48.662,0.345,-0.735,0.286
48.682,0.41,-0.282,-0.039
48.702,0.281,-0.543,-0.029
48.722,0.346,-0.746,0.438
48.742,0.55,-0.797,0.362
48.762,0.308,-0.445,0.419
48.782,0.061,-0.635,0.312
48.802,0.742,-0.651,-0.035
48.822,0.668,-0.773,0.137
48.842,0.142,-0.666,-0.06
48.862,0.528,-0.785,0.337
48.882,0.289,-0.36,0.023
48.902,0.437,-0.472,-0.22
48.922,0.45,-0.641,0.136
48.942,0.366,-0.618,0.332
48.962,0.243,-0.549,-0.168
48.982,0.26,-0.566,0.074
49.002,0.225,-0.76,-0.022
49.022,0.238,-0.959,0.297
49.042,0.382,-0.746,-0.321
49.062,0.254,-0.611,0.31
49.082,0.529,-0.745,-0.061
49.102,0.708,-0.449,0.027
49.122,0.297,-0.647,0.223
49.142,0.466,-0.241,0.341
49.162,0.51,-0.729,0.049
49.182,0.506,-0.579,-0.118
49.202,0.426,-0.666,-0.087
49.222,0.566,-0.529,0.265
49.242,0.52,-0.395,-0.151
49.262,0.171,-0.497,0.092
49.282,0.594,-1.014,0.039
49.302,0.607,-0.512,0.182
49.322,0.271,-0.808,0.031
49.342,0.45,-0.665,-0.047
49.362,0.567,-0.452,-0.066
49.382,0.386,-0.819,-0.055
49.402,0.634,-0.358,-0.237
49.422,0.897,-0.668,0.136
49.442,0.267,-0.174,0.077
49.462,0.135,-0.591,-0.276
49.482,0.492,-0.256,-0.068
49.502,0.57,-0.352,-0.04
49.522,0.36,-0.709,-0.103
49.542,0.699,-0.847,-0.013
49.562,0.142,-0.552,0.012
49.582,0.542,-0.699,0.201
49.602,0.274,-0.277,0.041
49.622,0.739,-0.636,0.172
49.642,0.783,-0.653,-0.22
49.662,0.239,-0.881,-0.161
49.682,0.291,-0.511,-0.244
49.702,0.573,-0.82,-0.056
49.722,0.312,-0.495,0.044
49.742,0.369,-0.485,0.353
49.762,0.387,-0.729,-0.153
49.782,0.002,-0.377,0.189
49.802,0.384,-0.646,-0.158
49.822,0.254,-0.902,-0.001
49.842,0.298,-0.296,-0.043
49.862,0.686,-0.785,-0.197
49.882,0.147,-0.506,-0.166
49.902,0.544,-0.521,0.332
49.922,0.326,-0.52,-0.089
49.942,0.325,-0.517,0.233
49.962,0.53,-0.796,0.159
49.982,0.446,-0.243,-0.094
50.002,0.492,-0.374,0.038
50.022,0.574,-0.461,0.049
50.042,0.295,-0.832,0.118
50.062,0.237,-0.749,-0.056
50.082,0.148,-0.431,-0.281
50.102,0.197,-0.956,-0.123
50.122,0.95,-0.484,0.259
50.142,0.611,-0.81,0.035
50.162,0.092,-0.721,-0.056
50.182,0.111,-0.816,-0.254
50.202,0.477,-0.482,0.28
50.222,0.495,-0.315,-0.011
50.242,0.498,-0.462,0.256
50.262,0.35,-0.436,0.184
50.282,0.38,-0.485,0.192
50.302,0.46,-0.388,0.38
50.322,0.422,-0.433,0.068
50.342,-0.047,-1.068,0.027
50.362,0.357,-0.349,0.377
50.382,0.221,-0.377,0.237
50.402,0.41,-0.623,-0.075
50.422,0.969,-0.945,0.271
50.442,0.462,-0.508,0.362
50.462,0.316,-0.498,-0.417
50.482,0.552,-0.657,-0.206
50.502,0.457,-0.546,-0.123
50.522,0.425,-0.375,0.181
50.542,0.476,-0.108,0.187
50.562,0.785,-0.564,0.131
50.582,0.145,-0.541,0.214
50.602,0.459,-0.764,-0.176
50.622,0.174,-0.702,-0.175
50.642,0.46,-0.631,0.313
50.662,0.166,-0.377,0.077
50.682,0.275,-0.457,0.287
50.702,0.317,-0.234,-0.091
50.722,0.563,-0.938,-0.161
50.742,0.543,-0.924,-0.194
50.762,0.116,-0.434,0.204
50.782,0.374,-0.362,0.264
50.802,0.22,-0.654,0.14
50.822,0.107,-1.557,-0.067
50.842,0.318,-0.819,0.154
50.862,0.305,-0.617,0.153
50.882,0.852,-0.866,-0.354
50.902,0.446,-0.653,-0.034
50.922,0.095,-0.299,0.085
50.942,0.256,-0.406,0.241
50.962,0.587,-0.504,-0.006
50.982,0.79,-0.69,0.06
51.002,0.05,-0.771,0.032
51.022,-0.023,-0.52,0.091
51.042,0.735,-0.641,-0.242
51.062,0.443,-0.626,-0.116
51.082,0.197,-0.942,-0.442
51.102,0.473,-0.762,-0.092
51.122,-0.153,-0.47,0.09
51.142,0.38,-0.846,-0.165
51.162,0.44,-0.567,-0.06
51.182,0.578,-0.542,0.063
51.202,0.191,-0.531,0.539
51.222,0.413,-0.504,-0.018
51.242,0.22,-0.504,0.156
51.262,0.448,-0.754,-0.033
51.282,0.218,-0.924,0.09
51.302,0.309,-0.809,0.03
51.322,0.179,-0.483,-0.053
51.342,0.514,-0.884,-0.017
51.362,0.529,-0.861,0.274
51.382,0.295,-0.866,0.078
51.402,0.357,-1.04,-0.198
51.422,0.044,-0.888,-0.042
51.442,0.268,-0.465,-0.132
51.462,0.321,-0.789,0.241
51.482,0.86,-1.0,-0.091
51.502,0.118,-0.761,0.22
51.522,0.64,-0.548,0.242
51.542,0.536,-1.025,0.083
51.562,0.398,-0.498,0.171
51.582,0.689,-0.971,-0.055
51.602,0.385,-0.745,0.219
51.622,0.405,-0.764,-0.2
51.642,0.312,-0.79,-0.043
51.662,0.567,-0.68,-0.006
51.682,0.534,-0.51,0.257
51.702,0.195,-0.661,0.403
51.722,0.052,-0.775,-0.031
51.742,0.267,-0.571,0.022
51.762,0.173,-0.63,-0.205
51.782,0.292,-0.801,0.007
51.802,0.547,-0.66,0.243
51.822,0.21,-0.823,-0.35
51.842,0.281,-0.838,0.008
51.862,0.294,-0.491,0.157
51.882,0.454,-0.565,0.042
51.902,-0.19,-0.512,-0.012
51.922,0.152,-0.527,0.187
51.942,0.318,-0.813,-0.155
51.962,0.517,-0.447,-0.143
51.982,0.178,-0.713,-0.37
52.002,-0.105,-0.448,0.062
52.022,0.391,-0.662,0.04
52.042,0.141,-0.554,-0.128
52.062,0.025,-0.549,-0.203
52.082,0.134,-0.451,-0.02
52.102,0.226,-0.954,0.018
52.122,0.128,-0.963,-0.237
52.142,-0.187,-0.516,-0.391
52.162,0.457,-0.577,-0.329
52.182,0.553,-0.796,-0.272
52.202,0.431,-0.554,-0.229
52.222,0.061,-0.912,-0.007
52.242,0.262,0.026,0.021
52.262,0.299,-0.365,-0.029
52.282,0.434,-0.511,0.073
52.302,0.441,-0.619,0.079
52.322,0.154,-0.739,0.073
52.342,0.322,-0.868,0.035
52.362,0.391,-0.625,-0.187
52.382,0.609,-0.78,-0.244
52.402,0.464,-0.773,-0.089
52.422,0.499,-0.894,0.242
52.442,0.347,-0.556,0.47
52.462,0.603,-0.682,0.096
52.482,0.43,-0.5,0.049
52.502,0.16,-0.527,0.187
52.522,0.627,-0.575,0.271
52.542,0.488,-0.087,-0.231
52.562,0.255,-0.452,0.55
52.582,0.258,-0.856,0.289
52.602,0.429,-0.52,-0.325
52.622,0.463,-0.626,-0.248
52.642,0.413,-0.865,0.523
52.662,0.437,-0.893,0.165
52.682,0.714,-0.52,-0.163
52.702,0.572,-0.455,-0.03
52.722,0.387,-0.786,0.107
52.742,0.55,-0.383,0.126
52.762,0.15,-0.529,0.232
52.782,0.426,-0.349,0.002
52.802,0.704,-0.37,0.0
52.822,0.296,-0.62,-0.118
52.842,0.156,-0.246,-0.225
52.862,0.194,-0.805,-0.229
52.882,0.107,-0.097,-0.06
52.902,0.161,-0.751,0.04
52.922,0.247,-0.583,-0.306
52.942,0.068,-0.684,0.391
52.962,0.349,-0.651,-0.166
52.982,0.514,0.019,-0.212
53.002,0.162,-0.653,-0.049
53.022,0.657,-0.384,-0.518
53.042,0.467,-0.609,0.036
53.062,0.575,-0.358,-0.247
53.082,0.231,-0.652,-0.441
53.102,0.535,-0.496,-0.031
53.122,0.14,-0.43,-0.014
53.142,0.55,-0.706,0.337
53.162,0.416,-0.012,-0.019
53.182,0.477,-0.458,-0.014
53.202,0.127,-0.623,-0.036
53.222,0.191,-0.71,-0.562
53.242,0.477,-0.54,-0.033
53.262,0.169,-0.803,-0.05
53.282,0.433,-0.192,-0.062
53.302,0.063,-0.455,-0.197
53.322,0.506,-0.556,0.086
53.342,0.078,-0.332,-0.218
53.362,0.436,-0.68,0.119
53.382,0.456,-0.761,0.047
53.402,0.182,-0.548,0.253
53.422,0.445,-0.498,-0.138
53.442,0.391,-0.422,0.216
53.462,0.23,-0.822,-0.008
53.482,0.118,-0.615,-0.064
53.502,-0.079,-1.131,-0.223
53.522,0.386,-0.761,0.037
53.542,-0.009,-0.393,-0.142
53.562,0.322,-0.346,-0.056
53.582,0.241,-0.768,0.09
53.602,0.43,-0.607,-0.062
53.622,0.231,-0.516,-0.008
53.642,0.225,-0.29,0.241
53.662,0.442,-0.193,0.049
53.682,0.36,-0.474,-0.18
53.702,0.373,-0.55,-0.142
53.722,0.418,-0.79,-0.028
53.742,0.021,-0.478,0.38
53.762,0.485,-0.084,-0.297
53.782,0.45,-0.248,0.017
53.802,0.128,-0.489,0.25
53.822,0.288,-0.48,0.099
53.842,0.335,-0.672,-0.061
53.862,0.326,-0.604,-0.374
53.882,0.424,-0.493,0.278
53.902,0.646,-0.486,-0.12
53.922,0.589,-0.294,-0.219
53.942,0.111,-0.302,0.011
53.962,0.492,-0.392,0.256
53.982,0.639,-0.706,0.047
54.002,0.458,-0.696,-0.098
54.022,0.595,-0.677,0.016
54.042,0.775,-0.455,-0.01
54.062,0.579,-0.903,-0.143
54.082,0.437,-0.498,-0.035
54.102,0.591,-0.2,-0.223
54.122,0.397,-0.348,-0.267
54.142,0.358,-0.552,0.057
54.162,0.27,-0.617,-0.11
54.182,0.641,-0.298,-0.029
54.202,0.159,-0.398,-0.187
54.222,0.624,-0.513,-0.127
54.242,0.423,-0.579,-0.105
54.262,0.056,-0.448,-0.114
54.282,0.418,-0.537,-0.086
54.302,-0.083,-0.312,0.019
54.322,0.456,-0.237,0.26
54.342,0.533,-0.768,0.143
54.362,0.222,-0.745,-0.075
54.382,0.375,-0.22,-0.147
54.402,0.732,-0.452,-0.371
54.422,0.248,-0.696,-0.158
54.442,0.149,-0.269,-0.245
54.462,0.66,-0.399,-0.005
54.482,0.766,-0.043,0.315
54.502,0.408,-0.534,-0.105
54.522,0.596,-0.258,-0.319
54.542,0.673,-0.782,-0.051
54.562,0.268,-0.208,-0.111
54.582,0.305,-0.297,0.242
54.602,0.652,-0.166,-0.383
54.622,0.741,-0.266,-0.199
54.642,0.523,-0.514,0.155
54.662,0.237,-0.741,-0.298
54.682,0.819,-0.656,0.117
54.702,0.307,-0.877,-0.127
54.722,0.367,-0.707,0.213
54.742,0.505,-0.432,-0.006
54.762,0.764,-0.522,-0.024
54.782,0.629,-0.554,0.126
54.802,0.554,-0.644,0.011
54.822,0.564,-0.837,-0.24
54.842,0.493,-0.435,-0.095
54.862,0.586,-0.403,-0.323
54.882,-0.021,-0.673,-0.171
54.902,0.418,-0.56,-0.401
54.922,0.524,-0.141,0.489
54.942,0.235,-0.22,0.026
54.962,0.536,-0.749,0.145
54.982,0.415,-0.487,-0.131
55.002,0.813,-0.188,0.146
55.022,0.78,-0.517,0.197
55.042,0.368,-0.521,0.232
55.062,0.437,-0.244,0.036
55.082,0.458,-0.272,0.26
55.102,0.379,-0.28,-0.07
55.122,0.504,-0.505,0.132
55.142,0.31,-0.336,0.069
55.162,0.256,-0.173,-0.178
55.182,0.6,-0.485,-0.308
55.202,0.613,-0.553,0.008
55.222,0.319,-0.237,-0.001
55.242,0.654,-0.083,-0.011
55.262,0.354,-0.063,0.251
55.282,0.537,-0.565,0.308
55.302,0.654,-0.538,0.166
55.322,0.491,-0.685,0.139
55.342,0.595,-0.447,-0.004
55.362,0.407,-0.695,0.06
55.382,0.466,-0.572,0.115
55.402,0.461,-0.323,0.06
55.422,0.353,-0.375,0.153
55.442,0.478,-0.829,0.044
55.462,0.21,-0.155,-0.062
55.482,0.423,-0.686,0.071
55.502,0.466,-0.656,-0.014
55.522,0.461,-0.699,0.323
55.542,0.461,-0.586,-0.054
55.562,0.492,-0.648,0.611
55.582,0.61,-0.663,0.385
55.602,0.691,-0.984,-0.177
55.622,0.398,-0.458,0.3
55.642,0.311,-0.433,0.022
55.662,0.351,-0.031,0.164
55.682,0.453,-0.375,0.372
55.702,0.478,-0.554,-0.088
55.722,0.378,-0.676,-0.045
55.742,0.291,-0.443,0.211
55.762,0.482,-0.326,-0.007
55.782,0.6,-0.523,-0.373
55.802,0.678,-0.39,0.257
55.822,0.442,-0.011,0.127
55.842,0.463,-0.465,0.046
55.862,0.345,-0.776,0.077
55.882,0.533,-0.217,0.488
55.902,0.359,-0.319,0.25
55.922,0.643,-0.723,-0.106
55.942,0.164,-0.31,0.08
55.962,0.432,-0.6,0.291
55.982,0.558,-0.308,0.272
56.002,0.52,-0.002,-0.263
56.022,1.022,-0.419,-0.081
56.042,0.559,-0.174,-0.211
56.062,0.294,-0.658,0.124
56.082,0.478,-0.697,-0.166
56.102,0.149,0.011,0.308
56.122,0.479,-0.338,0.252
56.142,0.325,-0.291,-0.046
56.162,0.671,-0.193,-0.242
56.182,0.364,-0.513,-0.135
56.202,0.442,-0.255,0.118
56.222,0.327,-0.276,0.208
56.242,0.801,-0.679,0.032
56.262,0.395,-0.117,-0.48
56.282,0.821,-0.149,0.159
56.302,0.608,-0.68,-0.37
56.322,0.542,-0.375,-0.394
56.342,0.516,-0.458,0.234
56.362,0.514,-0.125,-0.209
56.382,0.065,-0.691,0.071
56.402,0.405,0.318,0.038
56.422,0.632,-0.439,-0.136
56.442,0.448,-0.272,0.065
56.462,0.172,-0.143,-0.094
56.482,0.434,-0.44,0.04
56.502,0.778,-0.426,-0.05
56.522,0.686,-0.505,-0.065
56.542,0.399,-0.593,-0.097
56.562,0.616,-0.335,-0.14
56.582,0.356,-0.434,0.212
56.602,0.08,-0.51,-0.043
56.622,0.251,-0.503,-0.177
56.642,0.754,-0.303,-0.028
56.662,0.395,-0.586,-0.072
56.682,0.397,-0.476,-0.035
56.702,0.391,-0.255,0.187
56.722,0.815,-0.396,-0.079
56.742,0.763,-0.681,-0.042
56.762,0.878,-0.487,0.172
56.782,0.412,-0.392,0.144
56.802,0.499,-0.267,-0.089
56.822,0.131,-0.625,0.244
56.842,0.742,-0.579,0.211
56.862,0.224,-0.609,0.192
56.882,0.509,-0.604,0.075
56.902,0.25,-0.398,-0.005
56.922,0.359,-0.37,-0.184
56.942,0.307,-0.287,-0.225
56.962,0.344,-0.521,0.033
56.982,0.361,-0.784,0.046
57.002,0.342,-0.381,-0.014
57.022,0.631,-0.481,-0.001
57.042,0.243,-0.508,0.309
57.062,0.506,-0.772,0.354
57.082,0.696,-0.545,-0.201
57.102,0.363,-0.743,0.053
57.122,0.329,-0.431,0.01
57.142,0.429,-0.619,0.144
57.162,0.717,-0.643,0.359
57.182,0.521,-0.847,0.445
57.202,0.384,-0.339,0.153
57.222,0.584,-0.598,0.023
57.242,0.267,-0.529,-0.057
57.262,0.629,-0.686,0.505
57.282,0.56,-0.873,-0.141
57.302,0.404,-0.672,0.178
57.322,0.316,-0.633,-0.048
57.342,0.298,-0.5,-0.248
57.362,0.598,-0.637,0.358
57.382,0.733,-0.719,-0.343
57.402,0.349,-0.875,-0.441
57.422,0.58,-0.57,0.142
57.442,0.077,-0.72,-0.041
57.462,0.385,-0.288,0.106
57.482,0.483,-0.52,0.024
57.502,0.312,-0.427,0.149
57.522,0.276,-0.588,-0.044
57.542,0.334,-0.503,0.204
57.562,0.517,-0.732,0.214
57.582,0.436,-0.779,0.333
57.602,0.035,-0.547,0.264
57.622,0.06,-0.425,0.006
57.642,0.374,-0.921,0.16
57.662,0.611,-0.629,0.098
57.682,-0.031,-0.156,0.078
57.702,0.422,-0.433,-0.266
57.722,0.404,-0.222,0.153
57.742,0.778,-0.659,0.123
57.762,0.415,-0.623,0.359
57.782,0.569,-0.349,0.23
57.802,0.524,-0.413,0.033
57.822,0.063,-0.545,-0.025
57.842,0.646,-0.777,-0.217
57.862,0.545,-0.278,0.342
57.882,0.605,0.005,-0.233
57.902,1.3,-0.797,-0.396
57.922,0.08,-0.205,0.137
57.942,0.826,-0.591,-0.041
57.962,0.43,-0.553,-0.006
57.982,0.548,-0.422,-0.019
58.002,0.482,-0.714,-0.277
58.022,0.407,-0.494,-0.007
58.042,0.367,-0.807,-0.151
58.062,0.53,-0.393,-0.187
58.082,0.17,-0.032,0.198
58.102,0.634,-0.599,0.078
58.122,0.394,-0.509,-0.519
58.142,0.23,-0.507,-0.029
58.162,0.365,-0.295,0.131
58.182,0.699,-0.416,-0.33
58.202,0.349,-0.312,-0.257
58.222,0.518,-0.6,0.115
58.242,0.308,-0.429,-0.18
58.262,0.607,-1.175,-0.489
58.282,0.605,-0.382,0.144
58.302,0.843,-0.768,-0.135
58.322,0.435,-0.594,-0.038
58.342,0.607,-0.386,-0.134
58.362,0.493,-0.845,0.093
58.382,0.717,-0.319,-0.363
58.402,0.321,-0.563,-0.004
58.422,0.613,-0.26,0.101
58.442,0.404,-0.736,-0.407
58.462,0.415,-0.923,-0.292
58.482,0.441,-0.579,0.191
58.502,0.482,-0.47,0.085
58.522,0.402,-0.459,-0.313
58.542,0.475,-0.825,-0.385
58.562,0.756,-0.896,-0.068
58.582,0.636,-0.625,-0.034
58.602,0.62,-0.451,-0.124
58.622,0.355,-0.465,0.358
58.642,0.26,-0.223,0.028
58.662,0.627,-0.608,-0.273
58.682,0.603,-0.897,0.102
58.702,0.731,-0.285,-0.093
58.722,0.32,-0.476,-0.236
58.742,0.411,-0.456,0.092
58.762,0.128,-0.357,0.177
58.782,0.381,-0.247,-0.079
58.802,0.662,-0.505,-0.328
58.822,0.375,-0.287,-0.106
58.842,0.601,-0.409,-0.318
58.862,0.427,-0.671,-0.074
58.882,0.532,-0.59,0.025
58.902,0.238,-0.417,-0.524
58.922,0.506,-0.679,0.017
58.942,-0.126,-0.366,-0.199
58.962,0.443,-0.529,-0.248
58.982,0.17,-0.495,-0.403
59.002,0.728,-0.306,-0.363
59.022,0.664,-0.537,0.207
59.042,0.604,-0.602,0.032
59.062,0.813,-0.635,0.117
59.082,0.32,-0.64,-0.303
59.102,0.861,-0.555,0.237
59.122,0.701,-0.342,-0.129
59.142,0.455,-0.738,-0.284
59.162,0.735,-0.733,-0.34
59.182,0.269,-0.352,-0.324
59.202,0.322,-0.702,-0.263
59.222,0.362,-0.553,-0.278
59.242,0.378,-0.709,0.086
59.262,0.272,-0.934,0.42
59.282,0.731,-0.565,-0.161
59.302,0.421,-0.38,-0.136
59.322,0.544,-0.627,-0.481
59.342,0.351,-0.912,-0.309
59.362,0.104,-0.592,-0.438
59.382,0.54,-0.787,0.054
59.402,0.104,-1.172,0.271
59.422,0.489,-0.672,-0.313
59.442,0.231,-0.531,-0.14
59.462,0.896,-0.408,-0.151
59.482,0.683,-0.29,0.038
59.502,0.502,-0.501,-0.071
59.522,0.736,-0.45,0.336
59.542,0.327,-0.901,-0.237
59.562,0.595,-0.317,0.099
59.582,0.537,-0.396,-0.218
59.602,0.541,-0.716,-0.446
59.622,0.741,-0.497,0.161
59.642,0.623,-0.516,0.241
59.662,0.534,-0.327,-0.056
59.682,0.175,-0.643,-0.267
59.702,0.308,-0.771,-0.369
59.722,0.474,-0.742,-0.014
59.742,0.518,-0.489,-0.561
59.762,0.271,-1.046,0.033
59.782,0.991,-1.269,-0.23
59.802,0.806,-0.493,-0.249
59.822,0.627,-0.606,-0.378
59.842,0.517,-0.662,-0.448
59.862,0.476,-0.93,-0.162
59.882,0.331,-1.015,-0.133
59.902,0.538,-0.808,-0.215
59.922,0.581,-0.613,0.021
59.942,0.296,-0.791,-0.194
59.962,0.621,-0.503,-0.054
59.982,0.532,-0.87,-0.492
60.002,0.194,-0.776,-0.284
60.022,0.404,-0.519,0.087
60.042,0.514,-0.719,-0.019
60.062,0.983,-0.711,-0.138
60.082,0.722,-0.769,-0.278
60.102,0.343,-0.803,-0.409
60.122,0.692,-0.553,-0.331
60.142,0.286,-0.527,-0.071
60.162,0.804,-0.564,-0.584
60.182,0.489,-0.724,0.157
60.202,0.565,-0.645,0.038
60.222,0.863,-0.295,0.031
60.242,0.339,-0.902,-0.093
60.262,0.307,-0.244,-0.19
60.282,0.456,-0.613,-0.134
60.302,0.769,-0.669,-0.283
60.322,0.279,-0.443,0.213
60.342,0.011,-1.061,-0.255
60.362,0.47,-0.387,-0.316
60.382,0.673,-0.287,-0.272
60.402,0.797,-0.438,-0.368
60.422,0.464,-1.081,-0.061
60.442,0.483,-0.516,-0.347
60.462,0.809,-0.332,-0.27
60.482,0.203,-0.362,0.013
60.502,0.503,-0.944,-0.03
60.522,0.632,-0.445,-0.448
60.542,0.676,-0.28,-0.019
60.562,0.471,-0.646,-0.532
60.582,0.585,-0.951,-0.56
60.602,0.07,-0.499,-0.313
60.622,0.432,-0.453,-0.178
60.642,0.654,-0.69,-0.289
60.662,0.369,-0.911,-0.151
60.682,0.575,-0.467,-0.32
60.702,0.662,-0.811,-0.657
60.722,0.503,-0.579,-0.271
60.742,0.59,-0.351,-0.521
60.762,0.365,-0.991,-0.217
60.782,0.518,-0.48,-0.494
60.802,0.679,-0.703,-0.133
60.822,0.585,-0.695,0.055
60.842,0.432,-0.565,-0.582
60.862,0.585,-0.8,-0.651
60.882,0.699,-0.887,-0.314
60.902,0.152,-1.015,-0.03
60.922,0.8,-0.423,-0.208
60.942,0.499,-0.746,-0.323
60.962,0.643,-0.542,-0.465
60.982,0.767,-0.763,-0.102
61.002,0.264,-0.897,0.047
61.022,0.417,-0.524,-0.643
61.042,0.488,-0.603,-0.217
61.062,0.369,-0.714,0.235
61.082,0.88,-0.603,-0.375
61.102,0.379,-0.843,-0.305
61.122,0.432,-0.437,-0.27
61.142,0.603,-0.387,-0.337
61.162,0.327,-0.51,-0.03
61.182,0.463,-0.728,0.115
61.202,0.618,-0.626,-0.581
61.222,0.485,-0.314,-0.425
61.242,0.532,-0.374,0.015
61.262,0.442,-0.233,-0.12
61.282,0.246,-0.788,-0.143
61.302,0.604,-0.786,-0.084
61.322,0.879,-0.57,-0.203
61.342,0.538,-0.523,-0.127
61.362,0.567,-0.641,-0.301
61.382,0.65,-0.679,-0.276
61.402,0.238,-0.35,-0.237
61.422,0.841,-0.617,-0.291
61.442,0.565,-0.838,-0.121
61.462,0.838,-0.801,-0.152
61.482,0.357,-0.542,-0.585
61.502,0.867,0.014,-0.237
61.522,0.667,-0.767,-0.181
61.542,0.622,-0.612,0.119
61.562,0.575,-0.063,-0.246
61.582,0.471,-0.648,-0.177
61.602,0.76,-0.461,-0.201
61.622,0.549,-0.18,0.077
61.642,0.11,-0.735,-0.42
61.662,0.279,-0.6,-0.335
61.682,0.468,-0.628,-0.346
61.702,0.552,-0.833,-0.178
61.722,0.471,-0.212,-0.482
61.742,0.745,-0.644,0.116
61.762,0.103,-0.703,-0.102
61.782,0.523,-0.633,-0.073
61.802,0.128,-0.357,0.223
61.822,0.637,-0.512,-0.266
61.842,0.454,-0.686,-0.029
61.862,0.561,-0.444,-0.093
61.882,0.295,-0.363,0.105
61.902,0.719,-0.536,-0.071
61.922,0.684,-0.581,-0.31
61.942,0.584,-0.319,-0.135
61.962,0.452,-0.552,-0.366
61.982,0.59,-0.195,-0.337
62.002,0.33,-0.658,-0.265
62.022,0.647,-0.647,-0.286
62.042,0.792,-0.665,-0.413
62.062,0.684,-0.526,-0.689
62.082,0.314,-0.485,-0.167
62.102,0.534,-0.743,-0.172
62.122,0.191,-0.458,-0.173
62.142,0.568,-0.366,0.151
62.162,0.529,-0.762,-0.53
62.182,0.06,-0.576,0.088
62.202,0.196,-0.367,0.269
62.222,0.377,-0.687,0.13
62.242,0.388,-0.53,-0.269
62.262,0.201,-0.256,-0.111
62.282,0.517,-0.115,-0.345
62.302,0.483,-0.382,-0.345
62.322,0.409,-0.512,0.138
62.342,0.294,-0.581,-0.074
62.362,0.66,-0.299,-0.037
62.382,0.785,-0.274,-0.424
62.402,0.349,-0.715,-0.487
62.422,0.328,-0.285,0.035
62.442,0.561,-0.587,-0.1
62.462,0.387,-0.635,-0.236
62.482,0.44,-0.491,0.194
62.502,0.619,-0.271,-0.026
62.522,0.077,-0.402,-0.303
62.542,0.738,-0.415,-0.513
62.562,0.497,-0.42,-0.008
62.582,0.387,-0.397,-0.212
62.602,0.442,-0.515,-0.124
62.622,0.466,-0.35,-0.149
62.642,0.117,-0.614,0.177
62.662,0.749,-0.354,0.051
62.682,0.442,-0.317,-0.146
62.702,0.516,-0.354,-0.151
62.722,0.625,-0.352,-0.056
62.742,0.233,-0.416,0.131
62.762,0.519,-0.272,-0.12
62.782,0.368,-0.97,-0.248
62.802,0.597,-0.322,-0.349
62.822,-0.006,-0.099,-0.111
62.842,0.398,-0.594,-0.332
62.862,0.314,-0.622,-0.015
62.882,0.522,-0.236,0.011
62.902,0.545,-0.674,0.146
62.922,0.302,-0.628,-0.141
62.942,0.297,-0.469,0.087
62.962,0.43,-0.68,0.209
62.982,0.273,-0.348,-0.108
63.002,0.609,-0.668,0.319
63.022,0.387,-0.436,0.149
63.042,-0.118,-0.453,-0.235
63.062,0.407,-0.18,0.452
63.082,0.268,-0.265,-0.151
63.102,0.147,-0.606,0.155
63.122,0.233,-0.762,-0.004
63.142,0.516,-0.344,-0.06
63.162,0.771,-0.641,0.169
63.182,0.543,-0.583,-0.056
63.202,0.352,-0.75,-0.098
63.222,0.566,-0.405,-0.1
63.242,0.391,-0.664,-0.32
63.262,0.34,-0.547,0.137
63.282,0.244,-0.549,-0.205
63.302,0.127,-0.499,-0.027
63.322,0.391,-0.396,-0.069
63.342,0.494,-0.58,0.058
63.362,0.445,-0.685,-0.081
63.382,0.38,-0.924,-0.131
63.402,0.263,-0.529,-0.005
63.422,0.576,-0.585,-0.017
63.442,0.195,-0.677,-0.312
63.462,0.628,-0.516,-0.109
63.482,0.272,-0.346,0.163
63.502,0.333,-0.304,0.396
63.522,0.17,-0.83,-0.448
63.542,0.362,-0.594,0.058
63.562,0.653,-0.335,-0.092
63.582,0.556,-0.212,-0.227
63.602,0.653,-0.715,-0.183
63.622,0.543,-0.264,-0.277
63.642,0.201,-0.826,-0.386
63.662,0.361,-0.326,-0.031
63.682,0.273,-0.605,0.252
63.702,0.688,-0.224,-0.051
63.722,0.196,-0.613,-0.08
63.742,0.624,-0.576,-0.228
63.762,0.628,-0.537,-0.304
63.782,0.801,-0.802,-0.128
63.802,0.366,-0.851,-0.331
63.822,0.572,-0.403,0.108
63.842,0.875,-0.307,-0.229
63.862,0.303,-0.391,-0.271
63.882,0.104,-0.771,0.339
63.902,0.049,-0.42,0.133
63.922,0.587,-0.714,-0.362
63.942,0.074,-0.441,-0.282
63.962,0.369,-0.295,-0.154
63.982,0.518,-0.444,-0.165
64.002,0.452,-0.229,-0.224
64.022,0.503,-0.547,0.145
64.042,0.464,-0.562,-0.078
64.062,0.677,-0.497,-0.118
64.082,0.245,-0.777,-0.227
64.102,0.308,-0.608,-0.316
64.122,0.292,-0.585,-0.231
64.142,0.613,-0.572,-0.29
64.162,0.617,-0.473,-0.363
64.182,0.532,-0.827,0.1
64.202,0.681,-0.765,0.052
64.222,0.22,-0.316,-0.196
64.242,0.791,-0.958,0.132
64.262,0.786,-0.426,-0.017
64.282,0.641,-0.619,-0.342
64.302,0.831,-0.503,-0.425
64.322,0.146,-0.225,-0.069
64.342,0.385,-0.551,-0.031
64.362,0.337,-0.415,-0.4
64.382,0.622,-0.524,-0.268
64.402,0.284,-0.548,-0.001
64.422,0.636,-0.582,0.149
64.442,0.765,-0.399,-0.142
64.462,0.629,-0.699,-0.167
64.482,0.553,-0.771,-0.252
64.502,0.293,-0.539,0.16
64.522,0.315,-0.515,-0.019
64.542,0.745,-0.923,-0.292
64.562,0.667,-0.57,0.011
64.582,0.502,-0.816,-0.276
64.602,0.43,-0.442,-0.32
64.622,0.117,-0.927,-0.214
64.642,0.31,-0.195,-0.301
64.662,0.913,-0.643,-0.308
64.682,0.292,-0.745,-0.408
64.702,0.573,-0.618,-0.259
64.722,0.747,-0.462,-0.216
64.742,0.316,-0.384,-0.381
64.762,0.614,-0.625,0.001
64.782,0.752,-0.872,-0.457
64.802,0.584,-0.821,-0.18
64.822,1.155,-0.515,0.022
64.842,0.254,-0.366,0.12
64.862,0.809,-0.348,-0.216
64.882,0.578,-0.546,0.102
64.902,0.758,-0.392,-0.172
64.922,0.693,-0.204,0.349
64.942,0.461,-0.34,-0.395
64.962,0.645,-0.404,-0.305
64.982,0.235,-0.746,-0.082
65.002,0.725,-0.39,-0.372
65.022,0.665,-0.494,-0.245
65.042,0.728,-0.449,-0.003
65.062,0.818,-0.315,-0.055
65.082,0.674,-0.484,-0.1
65.102,0.629,-0.578,-0.108
65.122,0.424,-0.767,-0.606
65.142,0.452,-0.615,-0.114
65.162,0.814,-0.516,-0.283
65.182,0.87,-0.505,-0.22
65.202,0.535,-0.523,-0.483
65.222,0.589,-0.391,-0.036
65.242,0.398,-0.42,-0.062
65.262,0.822,-0.601,-0.402
65.282,0.742,-0.749,-0.141
65.302,0.98,-0.519,0.147
65.322,0.42,-0.154,-0.17
65.342,0.516,-0.555,-0.607
65.362,0.652,-0.68,-0.331
65.382,0.722,-0.512,-0.194
65.402,0.55,-0.501,0.205
65.422,0.417,-0.488,-0.458
65.442,0.757,-0.343,-0.233
65.462,0.718,-0.555,-0.404
65.482,0.388,-0.375,-0.006
65.502,0.844,-0.598,-0.262
65.522,0.783,-0.328,-0.744
65.542,0.573,-0.383,-0.283
65.562,0.57,-0.442,-0.201
65.582,0.678,-0.458,-0.099
65.602,0.398,-0.157,-0.131
65.622,0.582,-0.406,-0.031
65.642,0.132,-0.79,-0.191
65.662,0.735,-0.583,-0.138
65.682,0.235,-0.694,-0.163
65.702,0.846,-0.212,-0.257
65.722,0.502,-0.37,-0.069
65.742,0.54,-0.207,-0.003
65.762,0.465,-0.77,-0.169
65.782,0.536,-0.399,-0.261
65.802,0.875,-0.878,-0.39
65.822,0.1,-0.933,-0.121
65.842,0.847,-0.691,-0.402
65.862,0.681,-0.299,-0.179
65.882,0.38,-0.809,-0.187
65.902,0.416,-0.622,0.01
65.922,0.962,-0.388,0.072
65.942,0.433,-0.457,-0.826
65.962,0.384,-0.185,-0.271
65.982,0.83,-0.634,-0.647
66.002,0.684,-0.721,0.009
66.022,0.435,-0.855,-0.22
66.042,0.662,-0.713,0.012
66.062,0.407,-0.849,-0.171
66.082,0.847,-0.986,-0.482
66.102,0.845,-0.229,-0.387
66.122,0.735,-0.61,-0.21
66.142,0.712,-0.108,-0.069
66.162,1.011,-0.794,-0.187
66.182,0.653,-0.719,-0.159
66.202,0.413,-0.788,-0.264
66.222,0.737,-0.751,0.022
66.242,1.067,-0.461,-0.179
66.262,0.446,-0.528,-0.189
66.282,0.562,-0.459,-0.15
66.302,0.709,-0.368,-0.289
66.322,0.616,-0.425,-0.292
66.342,0.445,-0.863,-0.131
66.362,0.868,-0.77,-0.068
66.382,1.117,-0.64,-0.035
66.402,0.696,0.089,-0.269
66.422,0.474,-0.491,-0.216
66.442,0.337,-0.628,-0.373
66.462,0.702,-0.51,-0.104
66.482,0.883,-0.762,-0.459
66.502,0.745,-0.589,-0.228
66.522,0.655,-0.436,-0.102
66.542,0.532,-0.664,-0.254
66.562,0.435,-0.829,-0.226
66.582,0.813,-0.697,-0.323
66.602,0.83,-0.741,-0.628
66.622,0.329,-0.93,-0.392
66.642,0.966,-0.773,-0.256
66.662,0.763,-0.933,-0.409
66.682,0.946,-0.902,-0.177
66.702,0.401,-0.874,-0.562
66.722,0.386,-0.463,-0.663
66.742,0.614,-0.356,-0.137
66.762,0.758,-0.973,-0.333
66.782,1.011,-0.356,-0.189
66.802,0.783,-0.908,-0.362
66.822,0.607,-0.54,-0.133
66.842,0.446,-0.64,0.023
66.862,0.906,-0.561,0.022
66.882,0.471,-0.902,-0.399
66.902,0.97,-1.021,-0.356
66.922,0.594,-0.814,-0.229
66.942,0.959,-0.588,0.107
66.962,0.764,-0.291,-0.502
66.982,0.579,-0.888,-0.505
67.002,0.491,-0.69,-0.086
67.022,0.523,-0.822,-0.389
67.042,0.678,-0.671,-0.123
67.062,0.609,-1.066,-0.38
67.082,0.484,-0.39,-0.194
67.102,0.552,-0.687,-0.388
67.122,0.58,-0.529,-0.48
67.142,0.164,-0.753,-0.258
67.162,0.681,-0.658,-0.551
67.182,0.398,-0.464,-0.222
67.202,0.349,-0.679,-0.342
67.222,0.249,-0.673,-0.562
67.242,0.238,-0.874,-0.228
67.262,0.307,-0.829,-0.234
67.282,0.441,-0.951,-0.777
67.302,0.978,-0.89,-0.314
67.322,0.458,-0.48,-0.309
67.342,0.6,-0.393,-0.291
67.362,0.638,-1.016,-0.651
67.382,0.589,-0.684,-0.221
67.402,0.554,-0.828,-0.209
67.422,0.335,-0.485,-0.501
67.442,0.861,-0.743,-0.601
67.462,0.928,-0.765,-0.526
67.482,0.233,-0.926,-0.296
67.502,0.362,-1.076,-0.566
67.522,0.496,-0.617,-0.581
67.542,0.361,-0.7,0.091
67.562,0.653,-0.678,-0.33
67.582,0.404,-0.873,-0.38
67.602,0.979,-0.782,-0.46
67.622,0.783,-0.599,-0.425
67.642,0.58,-0.565,-0.001
67.662,0.752,-0.982,-0.215
67.682,0.763,-0.859,0.101
67.702,0.43,-1.012,-0.307
67.722,0.373,-0.673,-0.572
67.742,0.541,-0.541,-0.326
67.762,0.696,-0.769,-0.273
67.782,0.558,-0.842,-0.258
67.802,0.225,-0.783,-0.469
67.822,0.387,-0.251,-0.002
67.842,0.524,-0.481,-0.604
67.862,0.524,-0.561,-0.292
67.882,0.933,-0.64,-0.411
67.902,0.268,-0.708,-0.51
67.922,0.652,-0.889,-0.295
67.942,0.842,-0.916,-0.096
67.962,1.002,-0.839,-0.268
67.982,0.473,-0.909,-0.305
68.002,0.655,-0.842,-0.763
68.022,0.67,-0.751,-0.172
68.042,0.589,-0.742,-0.445
68.062,0.526,-0.858,-0.269
68.082,0.655,-0.642,-0.191
68.102,0.049,-0.782,-0.331
68.122,0.711,-0.684,-0.759
68.142,0.619,-0.885,-0.083
68.162,0.536,-0.614,-0.002
68.182,0.983,-0.863,-0.186
68.202,0.436,-0.443,-0.486
68.222,0.484,-0.798,-0.088
68.242,0.957,-0.78,-0.375
68.262,0.399,-0.655,-0.335
68.282,0.458,-0.602,-0.082
68.302,0.544,-0.585,-0.208
68.322,0.74,-0.399,-0.808
68.342,0.612,-0.628,-0.311
68.362,0.304,-0.792,-0.116
68.382,0.461,-0.896,-0.634
68.402,0.456,-0.843,-0.169
68.422,0.551,-0.546,-0.706
68.442,0.659,-1.121,-0.411
68.462,0.66,-1.001,-0.251
68.482,0.21,-0.869,-0.421
68.502,0.763,-0.99,-0.141
68.522,0.598,-0.896,-0.643
68.542,0.82,-0.458,-0.201
68.562,0.642,-0.874,-0.345
68.582,0.77,-0.751,-0.53
68.602,0.637,-1.17,-0.285
68.622,0.809,-1.047,-0.402
68.642,0.642,-0.645,-0.093
68.662,0.52,-0.5,-0.261
68.682,1.005,-0.777,-0.299
68.702,0.716,-0.879,-0.524
68.722,0.657,-0.734,-0.373
68.742,0.274,-1.342,-0.505
68.762,0.282,-0.765,-0.42
68.782,0.582,-1.03,-0.153
68.802,0.565,-0.649,-0.457
68.822,0.423,-1.244,-0.686
68.842,0.566,-0.93,-0.292
68.862,0.85,-0.828,-0.245
68.882,0.652,-0.963,-0.087
68.902,0.267,-0.88,-0.239
68.922,0.47,-0.616,-0.46
68.942,0.334,-0.796,-0.353
68.962,0.427,-0.975,-0.334
68.982,0.419,-0.606,-0.313
69.002,0.405,-0.733,-0.894
69.022,0.237,-0.744,-0.501
69.042,0.461,-0.968,-0.291
69.062,0.376,-1.297,-0.16
69.082,-0.092,-0.981,-0.514
69.102,0.904,-1.009,-0.49
69.122,0.72,-0.934,-0.452
69.142,0.427,-0.965,-0.434
69.162,0.505,-0.776,-0.242
69.182,0.275,-0.616,-0.559
69.202,0.857,-0.563,-0.224
69.222,0.894,-0.605,-0.117
69.242,0.564,-0.958,-0.493
69.262,0.74,-0.769,-0.497
69.282,0.571,-0.477,-0.393
69.302,0.265,-1.111,-0.542
69.322,0.455,-0.536,-0.448
69.342,0.572,-1.016,-0.722
69.362,0.456,-0.753,-0.252
69.382,0.505,-0.737,-0.087
69.402,0.52,-0.782,-0.556
69.422,0.513,-0.386,-0.764
69.442,0.532,-0.88,-0.249
69.462,0.312,-1.146,-0.516
69.482,0.37,-0.734,-0.571
69.502,0.236,-0.841,-0.462
69.522,0.674,-0.705,-0.684
69.542,0.063,-0.646,-0.355
69.562,0.732,-0.831,-0.699
69.582,0.788,-0.734,-0.697
69.602,0.439,-0.797,-0.699
69.622,-0.03,-0.465,-0.425
69.642,0.413,-0.904,-0.824
69.662,0.456,-0.971,-0.043
69.682,0.265,-0.643,-0.533
69.702,0.369,-1.01,-0.869
69.722,0.768,-0.757,-0.651
69.742,0.583,-0.861,-0.328
69.762,0.273,-0.875,-0.17
69.782,0.129,-0.351,-0.393
69.802,0.375,-0.593,-0.409
69.822,0.374,-0.635,-0.71
69.842,0.525,-0.741,-0.111
69.862,0.332,-0.979,-0.298
69.882,0.538,-0.795,-0.343
69.902,0.822,-0.728,-0.398
69.922,0.603,-0.796,-0.286
69.942,0.437,-0.807,-0.533
69.962,0.409,-0.9,-0.174
69.982,0.369,-0.769,-0.205
70.002,0.675,-0.905,-0.383
70.022,0.309,-0.665,-0.414
70.042,0.446,-1.208,-0.778
70.062,0.436,-0.55,-0.678
70.082,0.337,-1.088,-0.227
70.102,0.183,-1.043,-0.156
70.122,0.515,-0.75,-0.136
70.142,0.43,-0.729,-0.613
70.162,0.534,-0.42,0.108
70.182,0.322,-0.764,-0.159
70.202,0.691,-0.85,-0.485
70.222,0.265,-0.784,-0.343
70.242,0.784,-0.5,-0.715
70.262,0.088,-0.33,-0.498
70.282,0.504,-0.86,-0.272
70.302,0.506,-0.709,-0.368
70.322,0.252,-0.835,-0.036
70.342,0.511,-0.829,-0.671
70.362,0.664,-0.423,-0.385
70.382,-0.025,-0.987,-0.583
70.402,0.521,-1.277,-0.034
70.422,-0.079,-0.755,-0.279
70.442,0.216,-0.581,-0.337
70.462,0.747,-0.768,-0.366
70.482,0.308,-0.713,-0.51
70.502,0.189,-0.68,-0.075
70.522,0.383,-0.824,-0.278
70.542,0.846,-0.735,-0.26
70.562,0.057,-0.732,-0.201
70.582,0.227,-1.239,-0.507
70.602,0.759,-0.838,0.056
70.622,0.828,-1.166,-0.037
70.642,0.449,-0.88,-0.353
70.662,0.216,-0.961,-0.404
70.682,0.871,-0.643,-0.22
70.702,0.765,-0.789,-0.118
70.722,0.586,-0.737,0.007
70.742,0.285,-0.864,-0.207
70.762,0.442,-0.606,-0.319
70.782,0.422,-1.13,-0.325
70.802,0.516,-1.001,-0.735
70.822,0.728,-0.565,-0.426
70.842,0.613,-0.917,-0.284
70.862,0.208,-1.252,-0.807
70.882,0.699,-0.534,-0.327
70.902,0.49,-0.62,-0.522
70.922,0.541,-0.681,-0.042
70.942,0.71,-0.783,-0.406
70.962,0.191,-0.478,-0.414
70.982,0.411,-0.567,-0.391
71.002,0.305,-0.522,-0.381
71.022,0.094,-0.71,-0.217
71.042,0.493,-0.82,-0.444
71.062,0.912,-0.922,-0.358
71.082,0.036,-1.104,-0.206
71.102,0.398,-0.747,-0.357
71.122,0.508,-0.741,-0.221
71.142,0.395,-0.921,-0.444
71.162,0.356,-0.716,-0.294
71.182,0.106,-0.9,-0.109
71.202,0.414,-0.658,-0.256
71.222,0.22,-1.01,-0.776
71.242,-0.062,-1.038,-0.292
71.262,0.604,-0.854,-0.627
71.282,0.559,-0.639,-0.583
71.302,0.365,-1.043,-0.301
71.322,0.398,-0.606,-0.608
71.342,0.576,-1.145,-0.641
71.362,0.397,-0.858,-0.407
71.382,0.538,-1.079,-0.539
71.402,0.297,-1.316,-0.758
71.422,0.627,-0.717,-0.31
71.442,0.409,-0.829,-0.227
71.462,0.395,-1.07,-0.243
71.482,0.084,-0.895,-0.583
71.502,0.383,-0.702,-0.317
71.522,0.171,-0.872,-0.492
71.542,0.209,-0.843,-0.66
71.562,0.169,-0.874,-0.543
71.582,0.128,-0.925,-0.97
71.602,0.765,-0.925,-0.64
71.622,0.597,-0.924,-0.717
71.642,0.727,-0.956,-0.381
71.662,0.101,-1.02,-0.359
71.682,0.347,-0.905,-0.763
71.702,0.066,-0.957,-0.267
71.722,0.176,-1.033,-0.563
71.742,0.12,-0.657,-0.639
71.762,0.55,-0.54,-0.793
71.782,0.222,-0.779,-0.603
71.802,0.519,-0.775,-0.471
71.822,0.432,-0.936,-0.256
71.842,0.78,-0.583,-0.48
71.862,0.034,-0.462,-0.543
71.882,0.586,-0.855,-0.369
71.902,0.567,-0.934,-0.485
71.922,0.153,-0.761,-0.816
71.942,0.553,-0.809,-0.615
71.962,0.409,-0.933,-0.655
71.982,0.283,-0.743,-0.576
72.002,0.153,-0.667,-0.649
72.022,0.177,-0.999,-0.704
72.042,0.728,-0.323,-0.259
72.062,0.321,-1.121,-0.558
72.082,0.474,-0.977,-0.471
72.102,0.15,-0.76,-0.594
72.122,0.127,-0.36,-0.412
72.142,0.487,-0.911,-0.59
72.162,0.018,-1.013,-0.376
72.182,0.215,-0.684,-1.149
72.202,0.297,-0.85,-0.556
72.222,0.307,-0.663,-0.513
72.242,0.244,-0.803,-0.513
72.262,0.37,-0.956,-0.792
72.282,0.438,-0.316,-0.72
72.302,0.456,-1.38,-0.771
72.322,0.102,-0.417,-0.457
72.342,0.26,-0.59,-0.38
72.362,0.553,-0.926,-0.901
72.382,0.502,-0.393,-0.533
72.402,0.051,-1.052,-0.76
72.422,0.379,-0.59,-0.23
72.442,-0.092,-1.192,-0.452
72.462,0.312,-1.021,-0.634
72.482,0.674,-1.01,-0.589
72.502,0.09,-0.921,-0.293
72.522,0.108,-0.759,-0.543
72.542,0.441,-0.922,-0.903
72.562,-0.015,-1.161,-0.252
72.582,0.162,-0.664,-0.376
72.602,0.41,-0.736,-0.637
72.622,0.15,-0.668,-0.399
72.642,0.229,-0.731,-0.631
72.662,0.406,-0.58,-0.635
72.682,0.33,-0.791,-0.528
72.702,0.307,-0.567,-0.401
72.722,0.179,-0.921,-0.423
72.742,0.316,-0.927,-0.328
72.762,0.217,-0.53,-0.421
72.782,0.348,-0.53,-0.214
72.802,0.12,-0.7,-0.173
72.822,0.174,-0.988,-0.457
72.842,0.036,-1.012,-0.588
72.862,0.238,-0.565,-0.55
72.882,0.088,-0.555,-0.891
72.902,0.03,-0.825,-0.487
72.922,0.301,-0.335,-0.61
72.942,0.278,-0.734,-0.63
72.962,0.388,-1.044,-0.487
72.982,0.143,-0.89,-0.899
73.002,0.322,-0.825,-0.522
73.022,0.354,-0.816,-0.451
73.042,0.333,-0.595,-0.804
73.062,0.072,-1.049,-0.2
73.082,0.262,-1.117,-0.367
73.102,0.288,-0.746,-0.207
73.122,0.218,-0.977,-0.366
73.142,-0.213,-0.38,-0.375
73.162,0.232,-0.671,-0.153
73.182,0.653,-0.953,-0.205
73.202,0.141,-0.607,-0.075
73.222,0.07,-0.689,-0.507
73.242,0.302,-0.713,-0.62
73.262,0.297,-0.856,-0.692
73.282,0.471,-0.753,-0.639
73.302,-0.039,-1.269,-0.32
73.322,0.354,-0.587,0.099
73.342,0.325,-1.536,-0.133
73.362,0.178,-0.955,-0.467
73.382,0.258,-1.183,-0.261
73.402,0.398,-0.969,-0.525
73.422,0.373,-0.878,-0.506
73.442,-0.034,-1.105,-0.619
73.462,0.363,-1.414,-0.6
73.482,0.179,-0.813,-0.29
73.502,0.209,-0.436,-0.093
73.522,0.227,-0.925,-0.178
73.542,0.178,-0.651,-0.087
73.562,0.435,-0.543,-0.232
73.582,0.187,-1.234,-0.387
73.602,-0.023,-0.958,-0.48
73.622,0.114,-1.116,-0.259
73.642,0.22,-1.018,-0.732
73.662,0.433,-0.504,-0.503
73.682,0.308,-0.784,-0.542
73.702,0.029,-0.667,-0.148
73.722,0.7,-0.841,-0.676
73.742,0.266,-1.068,-0.222
73.762,0.468,-0.68,-0.332
73.782,0.187,-0.579,-0.337
73.802,0.323,-0.769,-0.502
73.822,0.402,-0.763,-0.705
73.842,0.482,-1.102,-0.31
73.862,0.435,-0.699,-0.245
73.882,0.396,-0.563,-0.299
73.902,0.161,-0.768,-0.431
73.922,0.109,-1.219,-0.628
73.942,0.298,-0.531,-0.531
73.962,0.413,-1.041,-0.308
73.982,0.182,-0.76,-0.543
74.002,0.448,-0.643,-0.57
74.022,0.512,-0.632,-0.653
74.042,0.028,-1.211,-0.251
74.062,0.063,-0.831,-0.248
74.082,0.199,-0.843,-0.118
74.102,0.296,-0.558,-0.774
74.122,0.141,-0.769,-0.101
74.142,0.503,-0.567,-0.103
74.162,0.309,-0.764,-0.095
74.182,0.232,-0.886,-0.302
74.202,-0.07,-0.816,-0.274
74.222,-0.042,-0.549,-0.281
74.242,0.283,-1.128,-0.511
74.262,-0.198,-0.679,-0.49
74.282,0.431,-0.995,-0.257
74.302,0.202,-1.025,-0.356
74.322,0.895,-0.659,-0.152
74.342,0.721,-1.053,-0.367
74.362,0.225,-0.783,-0.583
74.382,0.232,-0.957,-0.563
74.402,0.45,-1.334,-0.426
74.422,0.599,-0.765,-0.116
74.442,-0.059,-0.849,-0.351
74.462,-0.078,-1.254,-0.182
74.482,0.153,-1.007,-0.58
74.502,0.397,-1.249,-0.197
74.522,0.385,-0.73,-0.24
74.542,0.514,-0.606,-0.012
74.562,0.052,-0.714,-0.219
74.582,-0.166,-0.691,-0.106
74.602,0.463,-0.98,0.133
74.622,0.138,-0.766,-0.241
74.642,-0.101,-0.876,0.061
74.662,0.335,-0.837,-0.226
74.682,0.456,-0.68,-0.357
74.702,0.268,-0.628,-0.286
74.722,0.221,-0.934,-0.366
74.742,0.287,-1.137,-0.345
74.762,0.247,-0.886,-0.359
74.782,0.065,-0.889,-0.302
74.802,0.207,-0.81,-0.093
74.822,0.453,-0.717,-0.574
74.842,0.406,-1.257,-0.17
74.862,0.374,-1.008,-0.2
74.882,0.137,-1.068,0.059
74.902,0.301,-0.633,-0.303
74.922,-0.095,-0.917,-0.009
74.942,0.401,-0.981,-0.41
74.962,0.641,-0.794,-0.338
74.982,0.047,-1.041,-0.156
75.003,0.219,-0.923,-0.116
75.023,0.371,-0.567,-0.301
75.043,0.537,-0.584,-0.202
75.063,0.184,-1.024,-0.29
75.083,0.146,-0.975,-0.102
75.103,-0.123,-1.05,-0.288
75.123,0.275,-1.311,-0.292
75.143,0.654,-0.712,-0.035
75.163,0.305,-0.449,-0.185
75.183,0.24,-1.01,-0.103
75.203,0.306,-1.106,0.259
75.223,0.233,-0.993,-0.619
75.243,0.06,-0.928,-0.448
75.263,0.378,-1.175,-0.443
75.283,0.25,-1.044,-0.42
75.303,0.215,-0.754,0.031
75.323,0.005,-0.934,-0.774
75.343,0.471,-0.689,-0.153
75.363,0.35,-0.859,-0.557
75.383,0.091,-1.144,-0.237
75.403,0.406,-1.044,-0.197
75.423,0.106,-0.876,-0.077
75.443,0.063,-1.157,-0.327
75.463,0.059,-1.18,-0.316
75.483,-0.136,-1.169,-0.68
75.503,0.32,-0.822,0.188
75.523,-0.158,-1.003,-0.193
75.543,-0.024,-0.684,-0.163
75.563,-0.201,-1.099,-0.033
75.583,0.202,-1.413,-0.271
75.603,0.187,-0.94,-0.184
75.623,0.149,-0.569,-0.12
75.643,-0.002,-0.891,-0.571
75.663,-0.034,-1.174,-0.16
75.683,0.298,-1.22,0.151
75.703,0.109,-0.661,0.097
75.723,0.27,-1.073,0.051
75.743,0.025,-0.61,0.117
75.763,0.241,-0.774,-0.506
75.783,0.467,-1.064,-0.359
75.803,0.329,-0.674,-0.437
75.823,0.141,-1.109,0.459
75.843,0.257,-1.225,-0.159
75.863,0.152,-1.098,-0.511
75.883,0.212,-0.767,-0.453
75.903,0.144,-0.691,-0.215
75.923,0.165,-1.011,-0.522
75.943,0.227,-1.304,0.129
75.963,-0.014,-1.24,-0.094
75.983,-0.023,-1.142,-0.194
76.003,-0.076,-1.195,-0.475
76.023,-0.119,-0.876,-0.532
76.043,-0.051,-0.549,-0.217
76.063,0.237,-0.78,-0.276
76.083,0.026,-1.186,-0.582
76.103,0.315,-1.1,-0.335
76.123,0.238,-1.072,-0.319
76.143,-0.148,-0.893,-0.155
76.163,0.381,-0.656,0.121
76.183,0.419,-1.064,-0.718
76.203,0.072,-0.674,-0.139
76.223,0.345,-0.576,-0.436
76.243,0.077,-1.067,-0.217
76.263,0.287,-1.09,-0.288
76.283,0.003,-1.074,-0.2
76.303,-0.081,-0.987,-0.562
76.323,0.195,-1.062,-0.132
76.343,0.237,-0.804,-0.318
76.363,0.191,-1.288,-0.043
76.383,0.017,-1.086,0.001
76.403,0.2,-0.914,-0.26
76.423,0.353,-0.793,-0.108
76.443,0.305,-0.534,-0.115
76.463,0.336,-1.232,-0.038
76.483,0.178,-1.114,-0.037
76.503,0.558,-1.443,-0.537
76.523,0.09,-1.216,-0.262
76.543,0.432,-1.35,-0.596
76.563,0.577,-1.102,-0.418
76.583,0.424,-1.042,-0.401
76.603,0.283,-0.9,-0.204
76.623,0.215,-1.052,-0.366
76.643,0.513,-0.883,-0.359
76.663,0.028,-0.955,-0.132
76.683,0.13,-1.184,-0.135
76.703,0.249,-1.308,-0.249
76.723,0.595,-0.865,-0.16
76.743,0.427,-0.655,-0.179
76.763,0.158,-0.473,0.065
76.783,0.284,-0.789,-0.38
76.803,0.226,-0.689,-0.493
76.823,0.18,-0.886,-0.303
76.843,0.535,-0.931,-0.535
76.863,0.069,-0.959,-0.414
76.883,0.676,-0.997,-0.252
76.903,0.532,-0.855,-0.441
76.923,0.592,-1.077,-0.389
76.943,0.271,-1.01,-0.401
76.963,0.3,-1.203,-0.428
76.983,0.065,-0.855,-0.566
77.003,0.247,-1.157,-0.136
77.023,0.447,-0.952,-0.063
77.043,0.605,-0.851,-0.147
77.063,0.119,-0.83,-0.126
77.083,0.268,-0.802,-0.409
77.103,0.31,-1.004,-0.276
77.123,0.062,-0.887,-0.469
77.143,0.457,-1.092,-0.341
77.163,0.203,-1.371,-0.321
77.183,0.316,-0.885,-0.588
77.203,0.259,-0.918,-0.289
77.223,0.194,-0.771,-0.427
77.243,0.338,-0.982,-0.254
77.263,0.303,-1.299,-0.358
77.283,0.289,-0.985,-0.241
77.303,0.226,-0.801,-0.194
77.323,0.435,-0.888,-0.58
77.343,0.692,-1.005,-0.388
77.363,0.396,-1.314,-0.465
77.383,0.561,-1.169,-0.082
77.403,0.084,-0.863,0.022
77.423,0.402,-1.3,-0.301
77.443,0.143,-1.025,-0.239
77.463,0.068,-0.957,-0.608
77.483,0.205,-0.748,-0.259
77.503,0.588,-0.843,-0.376
77.523,0.535,-0.789,-0.06
77.543,0.406,-0.911,-0.374
77.563,0.053,-1.143,-0.482
77.583,0.314,-1.081,-0.578
77.603,0.409,-1.141,-0.277
77.623,0.394,-0.832,-0.433
77.643,-0.025,-1.088,-0.092
77.663,0.157,-1.034,-0.206
77.683,0.312,-0.944,-0.363
77.703,0.434,-0.622,-0.22
77.723,-0.111,-0.824,0.013
77.743,0.294,-1.114,-0.578
77.763,0.355,-0.93,-0.457
77.783,0.483,-0.621,0.065
77.803,0.442,-0.835,-0.478
77.823,0.426,-1.288,-0.191
77.843,0.135,-1.149,-0.079
77.863,-0.089,-1.165,-0.309
77.883,0.223,-0.679,-0.185
77.903,0.505,-0.706,-0.379
77.923,0.576,-1.086,0.036
77.943,0.447,-1.085,-0.402
77.963,0.383,-0.932,-0.507
77.983,0.374,-0.924,-0.13
78.003,0.179,-1.131,-0.147
78.023,0.25,-1.001,-0.274
78.043,0.608,-1.23,-0.295
78.063,0.098,-0.691,-0.387
78.083,0.621,-1.292,-0.428
78.103,0.241,-1.283,-0.387
78.123,0.578,-0.826,-0.205
78.143,0.039,-1.183,-0.3
78.163,0.436,-1.037,-0.538
78.183,0.159,-0.91,-0.32
78.203,0.025,-0.783,-0.257
78.223,0.361,-0.966,-0.114
78.243,0.528,-0.571,-0.157
78.263,0.159,-0.93,0.133
78.283,0.032,-0.677,-0.405
78.303,0.299,-0.878,-0.104
78.323,0.316,-0.511,-0.08
78.343,0.442,-0.722,-0.16
78.363,0.501,-0.929,-0.268
78.383,0.298,-0.798,-0.34
78.403,0.681,-0.983,-0.202
78.423,0.36,-0.98,-0.572
78.443,0.246,-1.189,-0.406
78.463,-0.013,-1.097,-0.402
78.483,0.251,-0.529,-0.12
78.503,0.237,-1.175,-0.094
78.523,0.494,-1.064,-0.429
78.543,0.414,-0.961,-0.478
78.563,0.083,-0.938,-0.508
78.583,0.345,-0.846,-0.031
78.603,0.456,-1.03,-0.042
78.623,0.627,-0.859,-0.098
78.643,0.508,-0.726,0.08
78.663,0.482,-0.681,0.146
78.683,0.349,-0.991,-0.413
78.703,0.428,-0.817,-0.288
78.723,0.614,-1.171,-0.052
78.743,0.105,-1.1,-0.771
78.763,0.281,-1.205,-0.273
78.783,0.181,-0.99,-0.038
78.803,0.415,-1.152,-0.296
78.823,0.57,-1.289,-0.09
78.843,0.194,-1.065,-0.636
78.863,-0.156,-1.328,-0.172
78.883,0.233,-0.706,-0.33
78.903,0.493,-1.095,-0.27
78.923,0.414,-0.798,-0.398
78.943,0.404,-1.105,0.1
78.963,0.275,-1.261,-0.21
78.983,0.099,-0.782,-0.201
79.003,0.466,-1.005,0.183
79.023,0.212,-0.658,-0.421
79.043,0.808,-1.133,-0.199
79.063,0.472,-1.132,-0.369
79.083,0.247,-0.836,-0.369
79.103,0.239,-0.829,-0.167
79.123,0.36,-1.011,-0.273
79.143,0.327,-0.374,0.187
79.163,0.592,-1.105,0.143
79.183,0.403,-1.308,-0.24
79.203,0.219,-1.276,-0.526
79.223,0.743,-1.146,-0.268
79.243,0.377,-0.801,-0.003
79.263,0.534,-1.146,-0.391
79.283,0.247,-0.799,0.101
79.303,0.45,-1.022,-0.093
79.323,0.447,-0.889,-0.433
79.343,0.01,-1.026,-0.339
79.363,0.795,-1.014,-0.326
79.383,0.646,-0.951,-0.39
79.403,0.294,-1.221,-0.456
79.423,0.157,-1.206,-0.354
79.443,0.442,-1.029,-0.327
79.463,0.396,-0.711,-0.002
79.483,0.447,-1.406,-0.186
79.503,0.422,-1.518,-0.17
79.523,0.496,-1.173,-0.2
79.543,0.693,-0.923,-0.417
79.563,0.53,-1.105,-0.04
79.583,0.206,-1.362,-0.363
79.603,0.699,-1.123,-0.333
79.623,0.751,-1.485,-0.19
79.643,1.048,-1.024,0.241
79.663,0.193,-1.213,-0.377
79.683,0.48,-1.158,-0.59
79.703,0.013,-1.058,-0.229
79.723,0.549,-1.102,-0.136
79.743,0.319,-1.251,-0.352
79.763,0.794,-0.947,-0.404
79.783,0.25,-0.999,-0.541
79.803,0.066,-1.516,-0.214
79.823,0.32,-1.204,0.112
79.843,0.017,-1.394,0.069
79.863,0.578,-1.417,-0.207
79.883,0.02,-1.048,-0.353
79.903,0.436,-1.235,-0.197
79.923,0.017,-1.181,-0.335
79.943,0.358,-1.302,-0.403
79.963,0.749,-1.095,-0.237
79.983,0.49,-1.029,-0.013
80.003,0.248,-0.744,-0.302
80.023,0.411,-1.207,-0.296
80.043,0.426,-1.478,-0.294
80.063,0.5,-1.271,-0.082
80.083,0.144,-1.0,-0.074
80.103,0.535,-1.325,-0.463
80.123,-0.117,-1.462,-0.275
80.143,0.309,-1.329,-0.02
80.163,0.339,-1.272,-0.301
80.183,0.572,-1.374,0.045
80.203,0.453,-1.101,-0.083
80.223,0.171,-1.161,0.134
80.243,0.25,-1.003,-0.286
80.263,0.499,-1.264,-0.071
80.283,0.445,-1.053,-0.071
80.303,0.358,-1.265,-0.01
80.323,0.367,-1.384,-0.15
80.343,0.596,-1.253,-0.006
80.363,0.343,-1.458,-0.353
80.383,0.439,-0.769,-0.237
80.403,0.897,-1.103,-0.52
80.423,0.163,-1.269,-0.255
80.443,0.069,-1.195,-0.366
80.463,0.585,-1.601,-0.131
80.483,0.302,-0.821,0.029
80.503,0.387,-0.835,-0.046
80.523,0.289,-1.094,-0.006
80.543,0.373,-1.033,-0.127
80.563,0.725,-1.373,-0.193
80.583,0.579,-1.384,-0.4
80.603,0.603,-1.502,-0.554
80.623,0.163,-1.185,-0.47
80.643,0.215,-0.959,-0.299
80.663,-0.144,-1.257,0.013
80.683,0.267,-1.111,-0.406
80.703,0.616,-0.98,-0.313
80.723,0.545,-1.505,-0.255
80.743,0.405,-0.795,0.083
80.763,0.446,-0.938,-0.165
80.783,0.309,-1.058,-0.135
80.803,0.501,-0.959,-0.096
80.823,0.606,-0.952,0.099
80.843,0.116,-1.096,-0.159
80.863,0.5,-0.881,-0.523
80.883,0.637,-1.255,-0.139
80.903,0.384,-1.062,0.123
80.923,0.592,-0.89,-0.05
80.943,1.027,-1.695,-0.136
80.963,0.443,-1.09,-0.101
80.983,0.55,-1.031,-0.528
81.003,0.31,-1.521,-0.552
81.023,0.49,-1.123,0.035
81.043,0.552,-1.343,0.102
81.063,0.499,-1.091,-0.28
81.083,0.255,-1.187,-0.118
81.103,0.497,-1.357,-0.014
81.123,0.748,-0.933,0.203
81.143,0.546,-1.236,-0.113
81.163,0.637,-1.089,0.053
81.183,0.392,-0.872,0.312
81.203,0.595,-1.313,-0.14
81.223,0.499,-1.131,-0.082
81.243,0.258,-1.228,-0.319
81.263,0.511,-1.181,-0.308
81.283,0.243,-0.675,0.065
81.303,0.325,-1.016,0.129
81.323,0.496,-1.041,0.11
81.343,0.516,-1.002,-0.298
81.363,0.227,-1.024,-0.121
81.383,0.682,-1.478,0.021
81.403,0.579,-0.665,-0.52
81.423,0.326,-1.413,0.041
81.443,0.163,-0.779,0.34
81.463,0.446,-0.993,0.194
81.483,0.404,-1.069,-0.517
81.503,0.522,-1.167,0.048
81.523,0.433,-0.578,0.013
81.543,0.094,-1.003,0.012
81.563,0.444,-1.121,-0.039
81.583,0.448,-1.235,-0.116
81.603,0.63,-1.247,-0.506
81.623,0.358,-1.111,0.02
81.643,0.831,-1.297,0.074
81.663,0.104,-0.967,-0.169
81.683,0.732,-1.254,0.2
81.703,0.437,-0.92,-0.382
81.723,0.649,-0.908,-0.412
81.743,0.471,-1.109,-0.046
81.763,0.681,-0.982,-0.206
81.783,0.38,-0.984,0.133
81.803,0.221,-1.411,-0.144
81.823,0.731,-0.764,0.224
81.843,0.428,-1.187,-0.198
81.863,0.486,-0.992,-0.012
81.883,0.692,-0.985,-0.449
81.903,0.254,-1.629,-0.065
81.923,0.58,-1.262,-0.05
81.943,0.338,-0.971,0.165
81.963,0.422,-1.118,-0.389
81.983,0.481,-0.993,-0.153
82.003,0.164,-1.108,0.215
82.023,0.306,-0.893,0.239
82.043,0.741,-1.123,-0.242
82.063,0.654,-0.858,-0.217
82.083,0.45,-1.318,-0.418
82.103,0.513,-1.142,-0.5
82.123,0.401,-1.219,-0.163
82.143,0.743,-1.001,-0.215
82.163,0.42,-1.136,0.312
82.183,0.514,-1.113,-0.036
82.203,0.678,-1.208,-0.143
82.223,0.299,-1.167,0.039
82.243,0.774,-1.064,0.106
82.263,0.147,-1.466,0.156
82.283,0.788,-1.524,-0.024
82.303,0.386,-1.041,-0.087
82.323,0.391,-1.612,-0.06
82.343,0.064,-1.101,-0.11
82.363,0.343,-1.131,-0.22
82.383,0.235,-0.94,0.082
82.403,0.335,-1.18,-0.178
82.423,0.425,-0.725,-0.339
82.443,0.633,-0.855,-0.126
82.463,0.483,-1.334,0.034
82.483,0.51,-1.079,-0.391
82.503,0.223,-0.709,-0.154
82.523,0.271,-1.124,-0.265
82.543,0.816,-0.981,0.346
82.563,0.32,-0.693,-0.085
82.583,0.802,-1.077,0.208
82.603,0.405,-0.741,-0.066
82.623,0.451,-1.124,-0.043
82.643,0.663,-1.51,-0.108
82.663,0.704,-0.689,-0.156
82.683,0.402,-0.848,-0.107
82.703,0.338,-0.84,-0.233
82.723,0.403,-1.163,-0.111
82.743,0.486,-1.13,-0.432
82.763,0.619,-0.697,-0.084
82.783,0.448,-0.864,-0.339
82.803,0.561,-0.932,-0.095
82.823,0.757,-0.874,-0.058
82.843,0.499,-0.626,0.153
82.863,0.481,-0.788,-0.058
82.883,0.117,-1.017,-0.182
82.903,-0.115,-1.199,-0.246
82.923,0.487,-0.819,0.025
82.943,0.388,-1.127,-0.139
82.963,0.308,-1.178,-0.284
82.983,0.455,-0.676,-0.109
83.003,0.387,-0.78,-0.518
83.023,0.617,-0.886,-0.143
83.043,0.413,-1.212,-0.321
83.063,0.239,-0.618,-0.222
83.083,0.594,-0.782,0.241
83.103,0.356,-1.051,-0.249
83.123,0.494,-1.084,0.002
83.143,0.305,-0.964,0.049
83.163,0.272,-1.083,0.019
83.183,0.412,-0.543,-0.078
83.203,0.416,-1.069,-0.391
83.223,0.509,-1.2,-0.3
83.243,0.363,-0.678,-0.409
83.263,0.049,-1.116,-0.245
83.283,0.345,-0.844,-0.231
83.303,0.608,-0.86,-0.339
83.323,0.392,-0.998,-0.054
83.343,0.403,-1.175,-0.269
83.363,0.659,-0.969,-0.244
83.383,0.314,-1.19,-0.476
83.403,0.151,-0.957,-0.166
83.423,0.421,-0.799,-0.202
83.443,0.375,-0.618,-0.303
83.463,0.289,-1.18,-0.095
83.483,0.465,-1.012,-0.139
83.503,0.594,-1.069,-0.036
83.523,0.503,-0.912,-0.049
83.543,0.57,-1.257,-0.021
83.563,0.874,-1.149,0.178
83.583,0.46,-1.308,-0.124
83.603,0.575,-1.264,-0.335
83.623,0.411,-1.098,-0.228
83.643,0.339,-0.62,-0.218
83.663,0.376,-0.886,-0.318
83.683,0.378,-0.95,-0.639
83.703,0.544,-0.695,-0.08
83.723,0.949,-0.871,-0.119
83.743,0.334,-0.871,0.252
83.763,0.386,-1.061,0.24
83.783,0.468,-1.096,0.001
83.803,0.549,-1.239,-0.019
83.823,0.504,-1.092,-0.293
83.843,0.693,-1.029,-0.097
83.863,-0.034,-0.913,-0.152
83.883,-0.028,-0.972,-0.121
83.903,0.363,-1.048,-0.296
83.923,0.694,-1.157,-0.052
83.943,0.142,-0.894,-0.414
83.963,-0.146,-1.068,0.456
83.983,0.578,-0.901,0.137
84.003,0.501,-1.361,0.107
84.023,0.222,-0.9,-0.409
84.043,0.248,-0.825,-0.456
84.063,0.239,-0.87,-0.072
84.083,0.458,-1.036,-0.188
84.103,0.318,-0.801,0.254
84.123,0.551,-1.235,0.011
84.143,-0.111,-1.007,-0.126
84.163,0.302,-1.023,0.166
84.183,0.238,-0.779,-0.105
84.203,0.429,-1.39,-0.099
84.223,0.367,-1.208,0.053
84.243,0.624,-0.642,-0.285
84.263,0.103,-1.475,0.055
84.283,0.49,-0.834,-0.042
84.303,0.576,-1.126,-0.327
84.323,0.844,-0.934,0.253
84.343,0.379,-0.69,-0.223
84.363,0.541,-0.924,-0.453
84.383,0.11,-0.686,-0.287
84.403,0.006,-1.07,-0.34
84.423,0.669,-1.042,-0.076
84.443,0.505,-0.797,0.194
84.463,0.73,-1.04,-0.073
84.483,0.207,-0.834,0.186
84.503,0.577,-0.715,0.084
84.523,0.857,-0.77,-0.656
84.543,0.564,-1.263,0.056
84.563,0.541,-1.027,-0.235
84.583,0.482,-0.91,-0.04
84.603,0.18,-1.016,-0.154
84.623,0.754,-0.957,0.422
84.643,0.358,-0.918,-0.06
84.663,0.579,-1.076,-0.035
84.683,0.172,-1.005,0.07
84.703,0.253,-1.218,-0.442
84.723,0.79,-1.075,0.084
84.743,0.447,-1.271,-0.184
84.763,0.8,-0.943,-0.276
84.783,0.494,-1.012,0.023
84.803,0.141,-1.134,-0.429
84.823,0.683,-0.592,0.052
84.843,0.371,-0.998,-0.169
84.863,0.628,-0.885,-0.152
84.883,0.502,-1.075,-0.594
84.903,0.191,-1.035,0.047
84.923,0.535,-0.888,-0.102
84.943,0.956,-1.007,-0.255
84.963,0.607,-0.927,-0.35
84.983,0.489,-0.768,-0.028
85.003,0.711,-1.044,-0.126
85.023,0.549,-1.209,-0.186
85.043,0.558,-1.25,-0.393
85.063,0.3,-0.665,-0.144
85.083,0.579,-0.76,-0.156
85.103,0.731,-0.8,0.063
85.123,0.352,-1.005,-0.446
85.143,0.808,-1.185,-0.345
85.163,0.502,-0.985,0.196
85.183,0.352,-0.937,-0.162
85.203,0.746,-1.151,-0.138
85.223,0.488,-1.234,0.014
85.243,0.702,-1.273,0.196
85.263,0.501,-0.803,-0.401
85.283,0.555,-1.167,0.275
85.303,0.683,-0.868,-0.155
85.323,0.647,-1.022,-0.097
85.343,0.19,-0.832,-0.121
85.363,0.355,-0.918,0.168
85.383,0.769,-1.044,0.059
85.403,0.547,-0.965,-0.175
85.423,0.459,-1.016,-0.364
85.443,0.297,-1.117,-0.169
85.463,0.349,-0.79,-0.402
85.483,0.136,-1.057,0.049
85.503,0.544,-0.979,-0.256
85.523,0.43,-1.234,-0.147
85.543,0.354,-0.909,0.107
85.563,0.521,-1.1,0.038
85.583,0.605,-1.092,-0.062
85.603,0.947,-1.163,-0.298
85.623,0.219,-1.009,-0.054
85.643,0.752,-1.385,-0.3
85.663,0.704,-0.845,-0.035
85.683,0.359,-0.971,-0.401
85.703,0.56,-1.052,0.104
85.723,0.429,-1.273,-0.126
85.743,0.563,-0.897,-0.162
85.763,0.838,-1.097,-0.075
85.783,0.643,-0.711,-0.181
85.803,0.64,-0.87,-0.127
85.823,0.469,-0.679,0.122
85.843,0.266,-0.952,0.078
85.863,0.518,-0.765,0.022
85.883,0.822,-0.908,-0.059
85.903,0.287,-1.103,-0.176
85.923,0.366,-0.985,0.107
85.943,0.599,-1.197,-0.277
85.963,0.383,-0.629,0.271
85.983,0.409,-1.065,0.061
86.003,0.493,-1.033,0.152
86.023,0.303,-0.955,0.012
86.043,0.371,-1.254,-0.111
86.063,0.705,-0.766,0.102
86.083,0.297,-1.208,-0.373
86.103,0.222,-1.251,-0.213
86.123,0.415,-1.047,-0.135
86.143,0.684,-1.269,-0.359
86.163,0.499,-0.699,0.038
86.183,0.435,-1.073,0.172
86.203,0.538,-1.666,-0.424
86.223,0.204,-0.986,-0.147
86.243,0.64,-0.906,-0.082
86.263,0.618,-1.101,0.014
86.283,0.463,-1.289,0.108
86.303,0.746,-1.028,-0.127
86.323,0.32,-1.11,0.138
86.343,0.771,-1.221,-0.03
86.363,0.572,-1.239,-0.147
86.383,0.491,-1.011,0.037
86.403,0.558,-0.871,-0.245
86.423,0.535,-0.948,-0.048
86.443,0.812,-1.392,-0.02
86.463,0.346,-0.92,-0.099
86.483,0.397,-0.912,0.543
86.503,0.753,-0.781,0.289
86.523,0.441,-1.259,0.069
86.543,0.729,-1.086,0.124
86.563,0.886,-0.952,0.159
86.583,0.46,-1.169,0.164
86.603,0.685,-0.954,0.374
86.623,0.307,-1.068,0.245
86.643,0.695,-1.227,-0.351
86.663,0.571,-1.211,0.199
86.683,0.636,-0.807,-0.171
86.703,0.418,-1.27,-0.126
86.723,0.222,-1.313,0.177
86.743,0.657,-1.019,-0.379
86.763,0.133,-1.107,0.348
86.783,0.49,-1.361,0.175
86.803,0.748,-1.193,0.088
86.823,0.59,-1.25,0.199
86.843,0.929,-1.209,0.274
86.863,0.745,-0.567,0.098
86.883,0.411,-1.136,0.198
86.903,0.555,-1.256,-0.15
86.923,0.533,-0.663,0.219
86.943,0.23,-0.902,0.157
86.963,0.368,-0.932,0.327
86.983,0.424,-1.241,0.071
87.003,0.105,-0.847,0.088
87.023,0.524,-0.909,-0.156
87.043,0.467,-1.03,0.027
87.063,0.176,-1.394,0.141
87.083,0.577,-1.052,0.162
87.103,0.657,-0.704,0.358
87.123,0.56,-1.005,0.112
87.143,0.451,-1.107,0.013
87.163,0.629,-1.076,0.144
87.183,0.645,-1.064,-0.065
87.203,0.568,-1.203,0.32
87.223,0.355,-1.056,-0.084
87.243,0.601,-0.763,-0.02
87.263,0.776,-0.783,-0.165
87.283,0.429,-1.185,0.072
87.303,0.984,-0.772,0.191
87.323,0.451,-0.882,0.407
87.343,0.557,-0.912,0.074
87.363,0.404,-0.961,0.037
87.383,0.577,-1.224,-0.455
87.403,0.175,-1.105,0.125
87.423,0.413,-0.853,0.073
87.443,0.291,-1.26,0.078
87.463,0.542,-1.237,0.377
87.483,0.722,-0.973,0.178
87.503,0.648,-1.188,-0.009
87.523,0.034,-0.867,-0.112
87.543,0.919,-1.188,-0.169
87.563,0.572,-0.993,-0.042
87.583,0.351,-0.97,0.112
87.603,0.533,-1.13,-0.376
87.623,0.532,-1.098,0.025
87.643,0.372,-1.19,0.208
87.663,0.547,-1.054,-0.153
87.683,0.367,-1.252,0.019
87.703,0.432,-1.114,-0.135
87.723,0.371,-0.906,-0.476
87.743,0.229,-1.26,-0.102
87.763,0.546,-1.122,-0.153
87.783,0.629,-0.924,0.205
87.803,0.624,-1.441,0.168
87.823,0.703,-0.639,-0.132
87.843,0.593,-0.817,0.335
87.863,0.414,-1.326,0.221
87.883,0.704,-1.428,-0.001
87.903,0.285,-0.997,0.113
87.923,0.38,-1.237,-0.148
87.943,0.381,-0.817,-0.455
87.963,0.785,-0.913,0.053
87.983,0.741,-0.963,-0.236
88.003,0.649,-1.104,-0.01
88.023,0.78,-0.653,0.122
88.043,0.383,-0.825,-0.327
88.063,0.644,-0.862,0.1
88.083,0.562,-0.737,0.221
88.103,0.758,-1.185,-0.38
88.123,0.595,-0.744,0.165
88.143,0.539,-1.058,0.405
88.163,0.711,-0.939,-0.03
88.183,0.775,-1.024,0.166
88.203,0.47,-1.376,-0.189
88.223,0.585,-0.798,0.171
88.243,0.378,-1.352,0.1
88.263,0.095,-1.196,0.043
88.283,0.644,-1.104,0.033
88.303,0.728,-1.395,0.077
88.323,0.658,-1.23,-0.019
88.343,0.21,-0.967,-0.193
88.363,0.523,-1.09,-0.044
88.383,0.147,-1.064,-0.036
88.403,0.852,-1.198,-0.256
88.423,0.355,-1.006,-0.03
88.443,0.826,-1.079,-0.017
88.463,0.753,-1.358,-0.11
88.483,0.363,-1.062,0.073
88.503,0.312,-1.274,0.101
88.523,0.596,-0.829,-0.158
88.543,0.352,-1.084,0.008
88.563,0.55,-0.498,0.15
88.583,0.441,-0.808,-0.229
88.603,0.181,-1.045,-0.364
88.623,0.097,-0.905,-0.213
88.643,0.608,-1.44,0.074
88.663,0.448,-0.836,-0.12
88.683,0.44,-1.192,-0.288
88.703,0.696,-1.017,0.215
88.723,0.787,-1.183,-0.256
88.743,0.487,-1.16,-0.062
88.763,0.471,-1.066,0.117
88.783,0.643,-1.013,0.094
88.803,0.275,-1.032,0.041
88.823,0.577,-1.014,-0.191
88.843,0.647,-1.333,0.04
88.863,0.658,-0.548,-0.069
88.883,0.122,-0.971,-0.0
88.903,0.371,-0.949,0.193
88.923,0.33,-1.092,-0.312
88.943,0.502,-1.202,0.001
88.963,0.582,-1.006,-0.052
88.983,0.779,-0.983,0.102
89.003,0.377,-0.774,0.282
89.023,0.391,-0.617,0.286
89.043,0.732,-0.751,0.098
89.063,0.57,-1.414,-0.191
89.083,0.765,-1.139,-0.166
89.103,0.574,-0.988,0.068
89.123,0.28,-1.139,-0.341
89.143,0.239,-1.062,-0.121
89.163,0.195,-1.495,-0.237
89.183,0.644,-0.89,-0.327
89.203,0.765,-1.457,-0.039
89.223,0.908,-1.386,0.086
89.243,0.713,-1.273,0.06
89.263,0.776,-1.09,-0.025
89.283,0.425,-1.403,-0.119
89.303,0.312,-1.266,-0.149
89.323,0.715,-0.831,0.114
89.343,0.617,-1.097,-0.159
89.363,0.552,-0.993,-0.164
89.383,0.608,-1.333,0.035
89.403,0.602,-1.098,-0.277
89.423,0.793,-1.106,-0.06
89.443,0.815,-1.22,-0.199
89.463,0.658,-1.056,-0.21
89.483,0.721,-1.445,-0.116
89.503,0.653,-0.978,0.078
89.523,0.463,-1.144,-0.04
89.543,0.706,-1.116,-0.026
89.563,0.273,-0.891,0.066
89.583,0.768,-0.963,0.026
89.603,0.31,-1.114,-0.139
89.623,0.593,-1.282,0.006
89.643,0.377,-0.793,-0.141
89.663,0.656,-1.354,-0.018
89.683,0.554,-0.95,0.113
89.703,0.242,-1.4,0.019
89.723,0.631,-0.888,-0.325
89.743,0.435,-0.869,-0.179
89.763,0.709,-1.455,0.057
89.783,0.517,-0.976,-0.512
89.803,0.596,-0.985,-0.011
89.823,0.327,-0.924,-0.023
89.843,0.402,-0.995,0.49
89.863,0.421,-1.26,0.02
89.883,0.676,-1.105,-0.086
89.903,0.867,-0.733,0.172
89.923,0.359,-1.295,-0.119
89.943,0.728,-0.986,-0.051
89.963,0.093,-0.827,-0.033
89.983,0.28,-1.257,0.073
90.003,1.356,0.092,-0.577
90.023,5.178,4.58,5.765
90.043,-2.62,5.773,-0.647
90.063,1.625,2.723,0.661
90.083,2.183,4.912,1.979
90.103,1.783,2.135,1.116
90.123,3.367,1.018,3.289
90.143,5.369,-0.227,3.992
90.163,3.225,2.336,2.423
90.183,6.691,1.966,1.197
90.203,-1.029,0.25,-0.182
90.223,0.964,-0.443,6.108
90.243,10.938,-1.933,6.746
90.263,4.972,3.004,5.453
90.283,7.102,-2.416,6.489
90.303,6.01,-1.483,6.695
90.323,3.962,-7.719,5.417
90.343,5.038,-0.538,2.248
90.363,8.419,-4.862,6.436
90.383,4.538,-1.861,6.783
90.403,7.549,-2.813,4.835
90.423,7.224,-4.569,4.653
90.443,7.376,-5.274,5.038
90.463,6.075,-2.308,3.857
90.483,5.678,-8.7,4.928
90.503,0.245,-1.553,2.408
90.523,4.994,-5.834,5.13
90.543,-0.24,-2.921,1.917
90.563,6.023,-5.58,0.544
90.583,4.758,-4.215,6.328
90.603,2.751,-7.528,0.224
90.623,3.701,-6.871,4.755
90.643,-3.772,-4.667,1.961
90.663,-1.823,2.657,-2.594
90.683,-1.096,-5.856,0.071
90.703,1.476,-3.828,0.545
90.723,-4.984,0.657,-0.239
90.743,-3.666,-1.453,-3.421
90.763,-6.851,-3.88,-1.563
90.783,-8.179,-0.938,0.078
90.803,-3.932,-2.094,1.862
90.823,-3.498,1.128,-0.829
90.843,-1.266,-0.584,2.199
90.863,-3.263,5.094,-0.708
90.883,-4.622,3.573,-0.543
90.903,-5.533,4.647,-4.485
90.923,-6.045,1.127,-3.223
90.943,-4.049,-0.75,-5.114
90.963,-5.135,-2.295,-2.654
90.983,-5.514,0.756,-7.888
91.003,-3.372,5.468,-5.923
91.023,-1.415,3.634,-4.081
91.043,-2.208,2.814,-4.272
91.063,-4.858,3.84,-4.4
91.083,0.585,2.423,-11.122
91.103,-4.718,7.659,-6.025
91.123,-4.219,4.248,-4.3
91.143,0.11,2.228,-5.485
91.163,0.685,0.12,-2.847
91.183,-4.213,6.185,-7.435
91.203,-1.523,5.129,-3.589
91.223,-0.597,-1.632,-5.353
91.243,-1.225,3.293,-11.963
91.263,0.391,4.809,-0.034
91.283,2.239,-0.256,-2.448
91.303,-3.846,-1.752,-7.689
91.323,2.512,1.744,-0.287
91.343,1.4,-3.539,-6.026
91.363,-0.34,-8.39,-1.666
91.383,0.842,-5.501,0.015
91.403,1.732,-4.242,-3.551
91.423,4.122,-1.853,-3.357
91.443,4.006,-5.593,-0.054
91.463,2.992,-8.286,0.772
91.483,2.315,-2.004,5.651
91.503,3.095,-5.81,-0.67
91.523,6.649,-6.693,2.706
91.543,3.813,-7.906,1.822
91.563,3.563,-4.397,-7.17
91.583,6.233,-9.013,0.017
91.603,2.518,-7.24,-2.845
91.623,5.313,-9.113,-1.92
91.643,5.235,-7.079,-1.053
91.663,4.731,-6.225,2.479
91.683,1.773,-3.402,0.019
91.703,0.909,-9.284,4.227
91.723,4.209,-6.32,3.626
91.743,2.087,-5.885,4.364
91.763,-2.321,-0.07,4.081
91.783,5.256,-3.482,1.443
91.803,4.889,0.697,2.708
91.823,0.587,-0.519,8.404
91.843,2.653,-1.094,6.378
91.863,-1.34,-4.822,6.46
91.883,-2.875,-2.201,7.084
91.903,3.125,3.243,5.584
91.923,0.362,1.878,7.133
